시간,실시간Raw_SCX,실시간Raw_SCY,실시간S_SCX,실시간S_SCY,실시간_SCX,실시간_SCY,실시간E_SCX,실시간E_SCY,보정_SCX,보정_SCY,이동거리,오차MTilt,오차Euler,오차Tilt,오차일반,오차왜곡MTilt,오차왜곡Euler,오차왜곡Tilt,오차왜곡일반,신뢰도MTilt,신뢰도Euler,신뢰도Tilt,신뢰도일반,신뢰도보정,신뢰도왜곡MTilt,신뢰도왜곡Euler,신뢰도왜곡Tilt,신뢰도왜곡일반,신뢰도왜곡보정,SC상태,SC수,SC시간,OneStep수,OneStep분산Raw,OneStep분산,Stance상태,Stance분산,헤딩왜곡,Stance헤딩,Stance헤딩S,Stance헤딩Raw,Stance헤딩Euler,Stance헤딩왜곡,Stance헤딩S왜곡,Stance헤딩Raw왜곡,Stance헤딩Euler왜곡,Stance헤딩B,Stance헤딩SB,Stance헤딩RawB,Stance헤딩EulerB,Stance헤딩Pure,Stance헤딩SPure,Stance헤딩RawPure,Stance헤딩EulerPure,AccleRawY,변화Y,상태Y,방향Y,피크RawY,피크Y,AccelRawX,AccelRawZ,AccelX,AccelY,AccelZ,자기X,자기Y,자기Z,일반헤딩,실시간일반헤딩,틸트헤딩S,실시간틸트헤딩S,틸트헤딩,실시간헤딩,피치,롤
2009-04-12 오후 7:48:49,0,0,0,0,0,0,0,0,0,0,0,0,0,0,0,0,0,0,0,1,1,1,1,1,1,1,1,1,1,0,0,955,0,0,0,1,4.151431,True,-144.209417607118,-167.209601523894,-156.811471795628,119.894135407169,False,False,False,False,0,0,0,0,0,0,0,0,2241,411,0,2,2247,0.1816959,1275,1942,-0.9905664,0.1745473,-0.169101,-24.65613,-9.405754,-22.06796,-156.593288232781,-156.915440935174,-143.115467188892,-144.152795338898,-167.54867943505,-167.405136179453,-9.54339387911475,9.85378072688858
2009-04-12 오후 7:48:49,0,0,0,0,0,0,0,0,0,0,0,0,0,0,0,0,0,0,0,1,1,1,1,1,1,1,1,1,1,0,0,956,0,0,0,1,3.237958,True,-144.209417607118,-167.209601523894,-156.811471795628,119.894135407169,False,False,False,False,0,0,0,0,0,0,0,0,2240,411,0,2,2247,0.1816959,1283,1947,-0.9807153,0.1733559,-0.1630901,-24.65613,-9.184889,-22.06796,-156.645347934635,-157.402460743753,-143.193549911483,-144.991009814221,-167.580931588311,-167.649165178119,-9.30012047012547,9.89122297014494
2009-04-12 오후 7:48:49,0,0,0,0,0,0,0,0,0,0,0,0,0,0,0,0,0,0,0,1,1,1,1,1,1,1,1,1,1,0,0,957,0,0,0,1,2.633914,True,-144.209417607118,-167.209601523894,-156.811471795628,119.894135407169,False,False,False,False,0,0,0,0,0,0,0,0,2239,411,0,2,2247,0.1816959,1280,1944,-0.9844095,0.1721644,-0.1666966,-24.65613,-9.184889,-22.06796,-156.697407636489,-157.402460743753,-143.264966369445,-144.73113477668,-167.618893779718,-167.808486170699,-9.47002740214506,9.78365688222735
2009-04-12 오후 7:48:49,0,0,0,0,0,0,0,0,0,0,0,0,0,0,0,0,0,0,0,1,1,1,1,1,1,1,1,1,1,0,0,958,0,0,0,1,2.828427,True,-144.209417607118,-167.209601523894,-156.811471795628,119.894135407169,False,False,False,False,0,0,0,0,0,0,0,0,2239,412,1,0,2239,0.1721644,1287,1934,-0.9757898,0.1721644,-0.1787183,-24.55325,-9.295321,-22.06796,-156.745956621109,-157.158513707356,-143.331560713853,-143.35281626255,-167.654738612482,-168.293484243283,-10.2243176355881,9.84556827818529
2009-04-12 오후 7:48:49,0,0,0,0,0,0,0,0,0,0,0,0,0,0,0,0,0,0,0,1,1,1,1,1,1,1,1,1,1,0,0,959,0,0,0,1,3.257204,True,-144.209417607118,-167.209601523894,-156.811471795628,119.894135407169,False,False,False,False,0,0,0,0,0,0,0,0,2237,413,1,2,2239,0.1721644,1282,1936,-0.9819467,0.1697816,-0.176314,-24.55325,-9.184889,-22.06796,-156.802128096843,-157.402460743753,-143.379686226744,-143.872375092334,-167.713164050642,-168.342565982659,-10.0335222775393,9.65814874113378
2009-04-12 오후 7:48:49,0,0,0,0,0,0,0,0,0,0,0,0,0,0,0,0,0,0,0,1,1,1,1,1,1,1,1,1,1,0,0,960,0,0,0,1,2.989565,True,-144.209417607118,-167.209601523894,-156.811471795628,119.894135407169,False,False,False,False,0,0,0,0,0,0,0,0,2237,414,1,0,2237,0.1697816,1288,1938,-0.9745584,0.1697816,-0.1739096,-24.55325,-9.295321,-22.06796,-156.835677986047,-157.158513707356,-143.382076792954,-143.735525422124,-167.764581714714,-168.047665735054,-9.97081431076946,9.7318055011432
2009-04-12 오후 7:48:49,0,0,0,0,0,0,0,0,0,0,0,0,0,0,0,0,0,0,0,1,1,1,1,1,1,1,1,1,1,0,0,961,0,0,0,1,1.932453,True,-144.209417607118,-167.209601523894,-156.811471795628,119.894135407169,False,False,False,False,0,0,0,0,0,0,0,0,2236,415,1,2,2237,0.1697816,1295,1935,-0.9659387,0.1685901,-0.1775161,-24.55325,-9.184889,-22.17851,-156.88338002721,-157.503861732171,-143.454176269833,-143.624043074491,-167.793896886632,-168.661166986683,-10.261625836382,9.74047557252089
2009-04-12 오후 7:48:49,0,0,0,0,0,0,0,0,0,0,0,0,0,0,0,0,0,0,0,1,1,1,1,1,1,1,1,1,1,0,0,962,0,0,0,1,2.117634,True,-144.209417607118,-167.209601523894,-156.811471795628,119.894135407169,False,False,False,False,0,0,0,0,0,0,0,0,2234,415,0,2,2237,0.1697816,1291,1935,-0.9708642,0.1662072,-0.1775161,-24.55325,-9.405754,-22.06796,-156.909334746056,-156.915440935174,-143.482357630348,-143.123362887572,-167.815849114624,-168.036300300275,-10.2162682576513,9.55910587552672
2009-04-12 오후 7:48:49,0,0,0,0,0,0,0,0,0,0,0,0,0,0,0,0,0,0,0,1,1,1,1,1,1,1,1,1,1,0,0,963,0,0,0,1,1.984313,True,-144.209417607118,-167.209601523894,-156.811471795628,119.894135407169,False,False,False,False,0,0,0,0,0,0,0,0,2240,416,1,1,2234,0.1662072,1279,1942,-0.9856408,0.1733559,-0.169101,-24.55325,-9.295321,-22.06796,-156.932038294857,-157.158513707356,-143.482371290726,-144.314998671308,-167.851898853063,-167.688097256388,-9.59072879761023,9.83441714059159
2009-04-12 오후 7:48:49,0,0,0,0,0,0,0,0,0,0,0,0,0,0,0,0,0,0,0,1,1,1,1,1,1,1,1,1,1,0,0,964,0,0,0,1,1.932453,True,-144.209417607118,-167.209601523894,-156.811471795628,119.894135407169,False,False,False,False,0,0,0,0,0,0,0,0,2235,417,1,2,2240,0.1733559,1289,1945,-0.973327,0.1673987,-0.1654945,-24.55325,-9.516187,-22.06796,-156.936313993278,-156.673228766827,-143.491824272538,-143.958175928688,-167.852445268197,-167.127857819907,-9.51264265992406,9.62313121503277
2009-04-12 오후 7:48:49,0,0,0,0,0,0,0,0,0,0,0,0,0,0,0,0,0,0,0,1,1,1,1,1,1,1,1,1,1,0,0,965,0,0,0,1,3.455069,True,-144.209417607118,-167.209601523894,-156.811471795628,119.894135407169,False,False,False,False,0,0,0,0,0,0,0,0,2228,417,0,2,2240,0.1733559,1282,1945,-0.9819467,0.1590586,-0.1654945,-24.55325,-9.516187,-22.06796,-156.933076483611,-156.673228766827,-143.524937029634,-144.041640840345,-167.82485130395,-167.041332983501,-9.44570595228429,9.07520917094612
2009-04-12 오후 7:48:49,0,0,0,0,0,0,0,0,0,0,0,0,0,0,0,0,0,0,0,1,1,1,1,1,1,1,1,1,1,0,0,966,0,0,0,1,4.044672,True,-144.209417607118,-167.209601523894,-156.811471795628,119.894135407169,False,False,False,False,0,0,0,0,0,0,0,0,2228,418,1,0,2228,0.1590586,1285,1937,-0.9782525,0.1590586,-0.1751118,-24.55325,-9.405754,-22.06796,-156.937406823545,-156.915440935174,-143.531739898047,-143.408810153365,-167.825889492704,-167.831053115716,-10.0198618991993,9.09310597411885
2009-04-12 오후 7:48:49,0,0,0,0,0,0,0,0,0,0,0,0,0,0,0,0,0,0,0,1,1,1,1,1,1,1,1,1,1,0,0,967,0,0,0,1,4.044672,True,-144.209417607118,-167.209601523894,-156.811471795628,119.894135407169,False,False,False,False,0,0,0,0,0,0,0,0,2231,419,1,1,2228,0.1590586,1280,1951,-0.9844095,0.1626329,-0.1582815,-24.65613,-9.405754,-22.06796,-156.941737163479,-156.915440935174,-143.604945865572,-144.926109356727,-167.785318169034,-166.868133046528,-9.01416606278642,9.26413561848326
2009-04-12 오후 7:48:50,0,0,0,0,0,0,0,0,0,0,0,0,0,0,0,0,0,0,0,1,1,1,1,1,1,1,1,1,1,0,0,968,0,0,0,1,4.299346,True,-144.209417607118,-167.209601523894,-156.811471795628,119.894135407169,False,False,False,False,0,0,0,0,0,0,0,0,2239,419,0,1,2228,0.1590586,1270,1928,-0.9967233,0.1721644,-0.1859313,-24.55325,-9.405754,-22.06796,-156.946067503412,-156.915440935174,-143.61919364018,-142.820922111124,-167.782531451853,-168.22858378579,-10.4158591918037,9.63697942357497
2009-04-12 오후 7:48:50,0,0,0,0,0,0,0,0,0,0,0,0,0,0,0,0,0,0,0,1,1,1,1,1,1,1,1,1,1,0,0,969,0,0,0,1,5.238082,True,-144.209417607118,-167.209601523894,-156.811471795628,119.894135407169,False,False,False,False,0,0,0,0,0,0,0,0,2243,419,0,1,2228,0.1590586,1291,1929,-0.9708642,0.1769302,-0.1847291,-24.55325,-9.405754,-22.17851,-156.956859202301,-157.018535810506,-143.61565560219,-142.649074551607,-167.802188736284,-168.527131354411,-10.6024872806852,10.1500179840231
2009-04-12 오후 7:48:50,0,0,0,0,0,0,0,0,0,0,0,0,0,0,0,0,0,0,0,1,1,1,1,1,1,1,1,1,1,0,0,970,0,0,0,1,6.203578,True,-144.209417607118,-167.209601523894,-156.811471795628,119.894135407169,False,False,False,False,0,0,0,0,0,0,0,0,2245,419,0,1,2228,0.1590586,1288,1952,-0.9745584,0.179313,-0.1570793,-24.55325,-9.295321,-22.17851,-156.97949444921,-157.260761639231,-143.696907532557,-145.308408704951,-167.787121338975,-167.244572092444,-9.00752541136588,10.2955044284389
2009-04-12 오후 7:48:50,0,0,0,0,0,0,0,0,0,0,0,0,0,0,0,0,0,0,0,1,1,1,1,1,1,1,1,1,1,0,0,971,0,0,0,1,6.538348,True,-144.209417607118,-167.209601523894,-156.811471795628,119.894135407169,False,False,False,False,0,0,0,0,0,0,0,0,2243,420,1,2,2245,0.179313,1285,1949,-0.9782525,0.1769302,-0.1606858,-24.55325,-9.405754,-22.06796,-156.987062298811,-156.915440935174,-143.73769742228,-144.706272888101,-167.772955526636,-167.066973513645,-9.1816269333095,10.1191438214273
2009-04-12 오후 7:48:50,0,0,0,0,0,0,0,0,0,0,0,0,0,0,0,0,0,0,0,1,1,1,1,1,1,1,1,1,1,0,0,972,0,0,0,1,6.837397,True,-144.209417607118,-167.209601523894,-156.811471795628,119.894135407169,False,False,False,False,0,0,0,0,0,0,0,0,2243,421,1,0,2243,0.1769302,1295,1942,-0.9659387,0.1769302,-0.169101,-24.55325,-9.405754,-22.06796,-156.998905846832,-156.915440935174,-143.723162779726,-143.823102107662,-167.801956509852,-167.639616573659,-9.77045412656172,10.2275722207276
2009-04-12 오후 7:48:50,0,0,0,0,0,0,0,0,0,0,0,0,0,0,0,0,0,0,0,1,1,1,1,1,1,1,1,1,1,0,0,973,0,0,0,1,6.152997,True,-144.209417607118,-167.209601523894,-156.811471795628,119.894135407169,False,False,False,False,0,0,0,0,0,0,0,0,2245,422,1,1,2243,0.1769302,1286,1943,-0.9770212,0.179313,-0.1678988,-24.55325,-9.626618,-21.95741,-156.99233520485,-156.326282477747,-143.747519234306,-143.525319520228,-167.777080960895,-166.891833802948,-9.59371871291941,10.2527474442347
2009-04-12 오후 7:48:50,0,0,0,0,0,0,0,0,0,0,0,0,0,0,0,0,0,0,0,1,1,1,1,1,1,1,1,1,1,0,0,974,0,0,0,1,4.580871,True,-144.209417607118,-167.209601523894,-156.811471795628,119.894135407169,False,False,False,False,0,0,0,0,0,0,0,0,2246,422,0,1,2243,0.1769302,1279,1946,-0.9856408,0.1805045,-0.1642923,-24.65613,-9.516187,-22.06796,-156.99661090327,-156.673228766827,-143.765646556364,-144.282746518047,-167.773652205932,-166.960026411621,-9.31131173508054,10.2395907923459
2009-04-12 오후 7:48:50,0,0,0,0,0,0,0,0,0,0,0,0,0,0,0,0,0,0,0,1,1,1,1,1,1,1,1,1,1,0,0,975,0,0,0,1,4.054319,True,-144.209417607118,-167.209601523894,-156.811471795628,119.894135407169,False,False,False,False,0,0,0,0,0,0,0,0,2254,422,0,1,2243,0.1769302,1283,1943,-0.9807153,0.190036,-0.1678988,-24.65613,-9.516187,-22.06796,-156.993373393604,-156.673228766827,-143.784306633176,-143.960675777924,-167.759377110566,-167.208522354005,-9.54075998741607,10.8129288241078
2009-04-12 오후 7:48:50,0,0,0,0,0,0,0,0,0,0,0,0,0,0,0,0,0,0,0,1,1,1,1,1,1,1,1,1,1,0,0,976,0,0,0,1,6.392134,True,-144.209417607118,-167.209601523894,-156.811471795628,119.894135407169,False,False,False,False,0,0,0,0,0,0,0,0,2262,422,0,1,2243,0.1769302,1273,1931,-0.9930291,0.1995675,-0.1823248,-24.65613,-9.516187,-21.95741,-156.986857393136,-156.568426344202,-143.807720521651,-142.868187020181,-167.737698090141,-167.758653110514,-10.2042846907525,11.1811964024556
2009-04-12 오후 7:48:50,0,0,0,0,0,0,0,0,0,0,0,0,0,0,0,0,0,0,0,1,1,1,1,1,1,1,1,1,1,0,0,977,0,0,0,1,6.204837,True,-144.209417607118,-167.209601523894,-156.811471795628,119.894135407169,False,False,False,False,0,0,0,0,0,0,0,0,2246,423,1,2,2262,0.1995675,1281,1941,-0.9831781,0.1805045,-0.1703031,-24.65613,-9.405754,-22.06796,-156.980450675694,-156.915440935174,-143.846461354623,-143.978229364091,-167.704339446234,-167.543119661065,-9.66862027490506,10.2538624726167
2009-04-12 오후 7:48:50,0,0,0,0,0,0,0,0,0,0,0,0,0,0,0,0,0,0,0,1,1,1,1,1,1,1,1,1,1,0,0,978,0,0,0,1,10.3893,True,-144.209417607118,-167.209601523894,-156.811471795628,119.894135407169,False,False,False,False,0,0,0,0,0,0,0,0,2223,423,0,2,2262,0.1995675,1267,1937,-1.000417,0.1531014,-0.1751118,-24.65613,-9.405754,-22.06796,-156.977226826406,-156.915440935174,-143.865736148461,-143.703491834916,-167.685160275045,-167.617445779613,-9.81637263457807,8.57254396029997
2009-04-12 오후 7:48:50,0,0,0,0,0,0,0,0,0,0,0,0,0,0,0,0,0,0,0,1,1,1,1,1,1,1,1,1,1,0,0,979,0,0,0,1,13.58078,True,-144.209417607118,-167.209601523894,-156.811471795628,119.894135407169,False,False,False,False,0,0,0,0,0,0,0,0,2219,423,0,2,2262,0.1995675,1271,1932,-0.9954919,0.1483357,-0.1811226,-24.65613,-9.405754,-22.06796,-156.974002977118,-156.915440935174,-143.884136678085,-143.115453528513,-167.666541179368,-167.976973277145,-10.201532124517,8.34019202379354
2009-04-12 오후 7:48:50,0,0,0,0,0,0,0,0,0,0,0,0,0,0,0,0,0,0,0,1,1,1,1,1,1,1,1,1,1,0,0,980,0,0,0,1,15.27252,True,-144.209417607118,-167.209601523894,-156.811471795628,119.894135407169,False,False,False,False,0,0,0,0,0,0,0,0,2221,424,1,1,2219,0.1483357,1286,1941,-0.9770212,0.1507186,-0.1703031,-24.65613,-9.184889,-22.06796,-156.9859967893,-157.402460743753,-143.930486341793,-144.236888627959,-167.655148423832,-168.05642203757,-9.77445149477347,8.64123005014091
2009-04-12 오후 7:48:50,0,0,0,0,0,0,0,0,0,0,0,0,0,0,0,0,0,0,0,1,1,1,1,1,1,1,1,1,1,0,0,981,0,0,0,1,16.47536,True,-144.209417607118,-167.209601523894,-156.811471795628,119.894135407169,False,False,False,False,0,0,0,0,0,0,0,0,2219,425,1,2,2221,0.1507186,1277,1952,-0.9881036,0.1483357,-0.1570793,-24.65613,-9.405754,-22.06796,-156.979590071859,-156.915440935174,-143.95642740026,-145.020352306895,-167.625956195319,-166.759191529266,-8.93428273157489,8.43323456821474
2009-04-12 오후 7:48:50,0,0,0,0,0,0,0,0,0,0,0,0,0,0,0,0,0,0,0,1,1,1,1,1,1,1,1,1,1,0,0,982,0,0,0,1,16.08571,True,-144.209417607118,-167.209601523894,-156.811471795628,119.894135407169,False,False,False,False,0,0,0,0,0,0,0,0,2232,426,1,1,2219,0.1483357,1264,1942,-1.004112,0.1638244,-0.169101,-24.759,-9.516187,-21.95741,-156.965519882168,-156.568426344202,-143.956645966314,-143.955976607775,-167.601845627549,-166.932172900186,-9.4369120837279,9.13987825578145
2009-04-12 오후 7:48:50,0,0,0,0,0,0,0,0,0,0,0,0,0,0,0,0,0,0,0,1,1,1,1,1,1,1,1,1,1,0,0,983,0,0,0,1,14.30909,True,-144.209417607118,-167.209601523894,-156.811471795628,119.894135407169,False,False,False,False,0,0,0,0,0,0,0,0,2230,427,1,2,2232,0.1638244,1290,1937,-0.9720956,0.1614415,-0.1751118,-24.86188,-9.737051,-21.73631,-156.922038897912,-155.869411124165,-143.905528830565,-142.330473547582,-167.563787813494,-166.863201649947,-10.076526856101,9.28263177075565
2009-04-12 오후 7:48:50,0,0,0,0,0,0,0,0,0,0,0,0,0,0,0,0,0,0,0,1,1,1,1,1,1,1,1,1,1,0,0,984,0,0,0,1,8.887316,True,-144.209417607118,-167.209601523894,-156.811471795628,119.894135407169,False,False,False,False,0,0,0,0,0,0,0,0,2219,427,0,2,2232,0.1638244,1280,1940,-0.9844095,0.1483357,-0.1715053,-24.86188,-9.737051,-21.62576,-156.885934517959,-155.760223720093,-143.864875544626,-142.659811608982,-167.52843475435,-166.434566298394,-9.7747750749854,8.44382733784379
2009-04-12 오후 7:48:50,0,0,0,0,0,0,0,0,0,0,0,0,0,0,0,0,0,0,0,1,1,1,1,1,1,1,1,1,1,0,0,985,0,0,0,1,6.469882,True,-144.209417607118,-167.209601523894,-156.811471795628,119.894135407169,False,False,False,False,0,0,0,0,0,0,0,0,2210,427,0,2,2232,0.1638244,1290,1953,-0.9720956,0.1376128,-0.1558771,-24.86188,-9.957916,-21.62576,-156.837931948473,-155.275553496589,-143.83405773109,-143.305196183656,-167.4664712782,-165.20498198363,-9.02147521897198,7.95709951985222
2009-04-12 오후 7:48:50,0,0,0,0,0,0,0,0,0,0,0,0,0,0,0,0,0,0,0,1,1,1,1,1,1,1,1,1,1,0,0,986,0,0,0,1,10.08712,True,-144.209417607118,-167.209601523894,-156.811471795628,119.894135407169,False,False,False,False,0,0,0,0,0,0,0,0,2198,427,0,2,2232,0.1638244,1306,1957,-0.9523935,0.1233155,-0.1510685,-24.759,-9.957916,-21.62576,-156.789929378986,-155.275553496589,-143.809168521755,-143.412826304597,-167.400682896114,-165.104509900939,-8.93975115177913,7.28747801890792
2009-04-12 오후 7:48:50,0,0,0,0,0,0,0,0,0,0,0,0,0,0,0,0,0,0,0,1,1,1,1,1,1,1,1,1,1,0,0,987,0,0,0,1,10.19727,True,-144.209417607118,-167.209601523894,-156.811471795628,119.894135407169,False,False,False,False,0,0,0,0,0,0,0,0,2214,428,1,1,2198,0.1233155,1331,1938,-0.9216089,0.1423785,-0.1739096,-24.55325,-9.737051,-21.95741,-156.76397466014,-156.085026535884,-143.735074629639,-141.781818111933,-167.404125311456,-167.514951960928,-10.5637336411082,8.63215358250761
2009-04-12 오후 7:48:50,0,0,0,0,0,0,0,0,0,0,0,0,0,0,0,0,0,0,0,1,1,1,1,1,1,1,1,1,1,0,0,988,0,0,0,1,10.24695,True,-144.209417607118,-167.209601523894,-156.811471795628,119.894135407169,False,False,False,False,0,0,0,0,0,0,0,0,2222,428,0,1,2198,0.1233155,1284,1937,-0.9794839,0.15191,-0.1751118,-24.759,-9.516187,-21.84686,-156.734604846709,-156.462722336607,-143.671827077924,-142.967060838606,-167.395409990075,-167.370479799604,-10.0189236019621,8.68038837842624
2009-04-12 오후 7:48:50,0,0,0,0,0,0,0,0,0,0,0,0,0,0,0,0,0,0,0,1,1,1,1,1,1,1,1,1,1,0,0,989,0,0,0,1,14.06236,True,-144.209417607118,-167.209601523894,-156.811471795628,119.894135407169,False,False,False,False,0,0,0,0,0,0,0,0,2247,428,0,1,2198,0.1233155,1289,1972,-0.973327,0.1816959,-0.133036,-25.17051,-9.405754,-21.40466,-156.699470353618,-156.278088662963,-143.722739307998,-146.36028515789,-167.305934511948,-164.945393814034,-7.65247052154871,10.4787498661339
2009-04-12 오후 7:48:50,0,0,0,0,0,0,0,0,0,0,0,0,0,0,0,0,0,0,0,1,1,1,1,1,1,1,1,1,1,0,0,990,0,0,0,1,16.73133,True,-144.209417607118,-167.209601523894,-156.811471795628,119.894135407169,False,False,False,False,0,0,0,0,0,0,0,0,2250,428,0,1,2198,0.1233155,1269,1950,-0.9979547,0.1852702,-0.1594836,-25.37626,-9.516187,-21.29411,-156.660784162159,-155.920459958022,-143.747150404091,-144.133944016789,-167.229641298919,-165.852224369759,-8.92963137275011,10.3883249917121
2009-04-12 오후 7:48:50,0,0,0,0,0,0,0,0,0,0,0,0,0,0,0,0,0,0,0,1,1,1,1,1,1,1,1,1,1,0,0,991,0,0,0,1,18.83978,True,-144.209417607118,-167.209601523894,-156.811471795628,119.894135407169,False,False,False,False,0,0,0,0,0,0,0,0,2250,429,1,0,2250,0.1852702,1241,1935,-1.032433,0.1852702,-0.1775161,-25.27338,-9.737051,-21.29411,-156.599052912441,-155.427033432001,-143.708655457929,-142.640769041576,-167.156544614421,-166.003485739118,-9.60550932697414,10.0293328102572
2009-04-12 오후 7:48:50,0,0,0,0,0,0,0,0,0,0,0,0,0,0,0,0,0,0,0,1,1,1,1,1,1,1,1,1,1,0,0,992,0,0,0,1,20.35582,True,-144.209417607118,-167.209601523894,-156.811471795628,119.894135407169,False,False,False,False,0,0,0,0,0,0,0,0,2252,430,1,1,2250,0.1852702,1251,1947,-1.02012,0.1876531,-0.1630901,-25.06763,-9.847484,-21.29411,-156.537280681587,-155.181761338906,-143.698574098714,-143.412867285732,-167.065061060678,-165.119905147328,-8.93576402885114,10.2952593954025
2009-04-12 오후 7:48:50,0,0,0,0,0,0,0,0,0,0,0,0,0,0,0,0,0,0,0,1,1,1,1,1,1,1,1,1,1,0,0,993,0,0,0,1,24.16609,True,-144.209417607118,-167.209601523894,-156.811471795628,119.894135407169,False,False,False,False,0,0,0,0,0,0,0,0,2279,430,0,1,2250,0.1852702,1308,1991,-0.9499307,0.2198219,-0.1101949,-25.06763,-9.847484,-21.29411,-156.464716751845,-155.181761338906,-143.80937342743,-147.169785517941,-166.881110405951,-162.774896299588,-6.44800849632563,12.9455204962082
2009-04-12 오후 7:48:50,0,0,0,0,0,0,0,0,0,0,0,0,0,0,0,0,0,0,0,1,1,1,1,1,1,1,1,1,1,0,0,994,0,0,0,1,20.45689,True,-144.209417607118,-167.209601523894,-156.811471795628,119.894135407169,False,False,False,False,0,0,0,0,0,0,0,0,2271,431,1,2,2279,0.2198219,1329,2006,-0.9240717,0.2102904,-0.09216238,-25.17051,-9.847484,-21.29411,-156.410539691348,-155.181761338906,-143.974759627993,-148.415557381038,-166.68740624109,-161.837712383192,-5.55447589202856,12.7592117186705
2009-04-12 오후 7:48:50,0,0,0,0,0,0,0,0,0,0,0,0,0,0,0,0,0,0,0,1,1,1,1,1,1,1,1,1,1,0,0,995,0,0,0,1,15.88189,True,-144.209417607118,-167.209601523894,-156.811471795628,119.894135407169,False,False,False,False,0,0,0,0,0,0,0,0,2252,431,0,2,2279,0.2198219,1300,1986,-0.9597818,0.1876531,-0.1162057,-25.06763,-9.626618,-21.40466,-156.367591461847,-155.78444357089,-144.063879936283,-147.166793895085,-166.559449477179,-163.593590094262,-6.77641210246948,10.9844647562445
2009-04-12 오후 7:48:50,0,0,0,0,0,0,0,0,0,0,0,0,0,0,0,0,0,0,0,1,1,1,1,1,1,1,1,1,1,0,0,996,0,0,0,1,16.62077,True,-144.209417607118,-167.209601523894,-156.811471795628,119.894135407169,False,False,False,False,0,0,0,0,0,0,0,0,2219,431,0,2,2279,0.2198219,1278,2000,-0.9868722,0.1483357,-0.09937537,-25.17051,-9.516187,-21.40466,-156.347510705687,-156.030794833874,-144.216015569856,-148.826420580371,-166.417805014171,-162.595262324416,-5.68669298643438,8.50569433757212
2009-04-12 오후 7:48:50,0,0,0,0,0,0,0,0,0,0,0,0,0,0,0,0,0,0,0,1,1,1,1,1,1,1,1,1,1,0,0,997,0,0,0,1,16.8003,True,-144.209417607118,-167.209601523894,-156.811471795628,119.894135407169,False,False,False,False,0,0,0,0,0,0,0,0,2263,432,1,1,2219,0.1483357,1291,1967,-0.9708642,0.2007589,-0.1390468,-25.78776,-9.184889,-20.96246,-156.337060516257,-156.33893198809,-144.276927196874,-145.990935848332,-166.366291727451,-165.393044412237,-7.9837970217705,11.5683562840477
2009-04-12 오후 7:48:51,0,0,0,0,0,0,0,0,0,0,0,0,0,0,0,0,0,0,0,1,1,1,1,1,1,1,1,1,1,0,0,998,0,0,0,1,16.72153,True,-144.209417607118,-167.209601523894,-156.811471795628,119.894135407169,False,False,False,False,0,0,0,0,0,0,0,0,2257,433,1,2,2263,0.2007589,1294,1981,-0.9671701,0.1936103,-0.1222165,-26.61076,-9.074457,-20.29915,-156.305750929102,-155.913629768852,-144.385882374514,-146.895321196333,-166.247432775514,-164.027730578287,-7.06333596978384,11.2329419156077
2009-04-12 오후 7:48:51,0,0,0,0,0,0,0,0,0,0,0,0,0,0,0,0,0,0,0,1,1,1,1,1,1,1,1,1,1,0,0,999,0,0,0,1,20.45383,True,-144.209417607118,-167.209601523894,-156.811471795628,119.894135407169,False,False,False,False,0,0,0,0,0,0,0,0,2220,433,0,2,2263,0.2007589,1284,2037,-0.9794839,0.1495271,-0.05489525,-27.12514,-8.964025,-19.85695,-156.267898020722,-155.704161527386,-144.604311824171,-151.91561951932,-166.019263476101,-159.566824748325,-3.17112833870316,8.66631648118872
2009-04-12 오후 7:48:51,0,0,0,0,0,0,0,0,0,0,0,0,0,0,0,0,0,0,0,1,1,1,1,1,1,1,1,1,1,0,0,1000,0,0,0,1,25.78275,True,-144.209417607118,-167.209601523894,-156.811471795628,119.894135407169,False,False,False,False,0,0,0,0,0,0,0,0,2299,434,1,1,2220,0.1495271,1222,1974,-1.05583,0.2436506,-0.1306317,-27.22802,-8.411862,-20.07805,-156.278921946042,-157.268356809589,-144.784738101286,-148.594822525994,-165.926878337387,-165.27238229036,-6.8741657698707,12.8994653844085
2009-04-12 오후 7:48:51,0,0,0,0,0,0,0,0,0,0,0,0,0,0,0,0,0,0,0,1,1,1,1,1,1,1,1,1,1,0,0,1001,0,0,0,1,27.436,True,-144.209417607118,-167.209601523894,-156.811471795628,119.894135407169,False,False,False,False,0,0,0,0,0,0,0,0,2292,435,1,2,2299,0.2436506,1142,2132,-1.15434,0.2353106,0.05931048,-27.7424,-7.638835,-19.7464,-156.336186252044,-158.851198508226,-145.409536485802,-162.642226705149,-165.527749403048,-155.754882512162,2.8821242518997,11.5070237466219
2009-04-12 오후 7:48:51,0,0,0,0,0,0,0,0,0,0,0,0,0,0,0,0,0,0,0,1,1,1,1,1,1,1,1,1,1,0,0,1002,0,0,0,1,32.17142,True,-144.209417607118,-167.209601523894,-156.811471795628,119.894135407169,False,False,False,False,0,0,0,0,0,0,0,0,2310,436,1,1,2292,0.2353106,951,2062,-1.389535,0.2567564,-0.02484111,-28.5654,-6.755376,-18.97255,-156.434322410038,-160.401200657333,-145.409536485802,-159.460437721812,-165.527749403048,-161.875524310437,-1.00713850043165,10.4673229596525
2009-04-12 오후 7:48:51,0,0,0,0,0,0,0,0,0,0,0,0,0,0,0,0,0,0,0,1,1,1,1,1,1,1,1,1,1,0,0,1003,0,0,0,1,39.62461,True,-144.209417607118,-167.209601523894,-156.811471795628,119.894135407169,False,False,False,False,0,0,0,0,0,0,0,0,2337,436,0,1,2292,0.2353106,1453,2019,-0.7713801,0.2889252,-0.07653423,-29.69703,-5.430187,-17.9776,-156.630485443001,-163.192903876793,-145.409536485802,-157.333762701081,-165.527749403048,-169.928453945666,-5.30831502056766,20.4417401952091
2009-04-12 오후 7:48:51,0,0,0,0,0,0,0,0,0,0,0,0,0,0,0,0,0,0,0,1,1,1,1,1,1,1,1,1,1,0,0,1004,0,0,0,1,54.93177,False,-144.209417607118,-167.209601523894,-156.811471795628,119.894135407169,False,False,False,False,0,0,0,0,0,0,0,0,2414,436,0,1,2292,0.2353106,1181,2033,-1.106316,0.3806659,-0.05970391,-30.82866,-4.436295,-16.76155,-156.888598291736,-165.175393604145,-145.409536485802,-162.33699921152,-165.527749403048,-169.174851853781,-2.92127254834469,18.9619079945396
2009-04-12 오후 7:48:51,0,0,0,0,0,0,0,0,0,0,0,0,0,0,0,0,0,0,0,1,1,1,1,1,1,1,1,1,1,0,0,1005,0,0,0,0,116.0592,False,-144.209417607118,-167.209601523894,-156.811471795628,119.894135407169,False,False,False,False,0,0,0,0,0,0,0,0,2616,436,0,1,2292,0.2353106,985,2238,-1.347668,0.6213361,0.18674,-31.5488,-3.663268,-15.87715,-157.222389636474,-167.007755773541,-145.409536485802,-175.649843866197,-165.527749403048,-159.401028736412,7.17213405307298,24.5453332164784
2009-04-12 오후 7:48:51,0,0,0,0,0,0,0,0,0,0,0,0,0,0,0,0,0,0,0,1,1,1,1,1,1,1,1,1,1,0,0,1006,0,0,0,0,159.8357,False,-144.209417607118,-167.209601523894,-156.811471795628,119.894135407169,False,False,False,False,0,0,0,0,0,0,0,0,2702,436,0,1,2292,0.2353106,818,1939,-1.553309,0.7237996,-0.1727075,-31.44592,-2.338078,-15.9877,-157.691336764509,-171.679905694154,-145.409536485802,-165.452876869366,-165.527749403048,-178.279835526867,-5.75497481445382,24.8497513326913
2009-04-12 오후 7:48:51,0,0,0,0,0,0,0,0,0,0,0,0,0,0,0,0,0,0,0,1,1,1,1,1,1,1,1,1,1,0,0,1007,0,0,0,0,174.7783,False,-144.209417607118,-167.209601523894,-156.811471795628,119.894135407169,False,False,False,False,0,0,0,0,0,0,0,0,2720,436,0,1,2292,0.2353106,708,2055,-1.688761,0.7452455,-0.03325627,-30.93154,-0.5711597,-16.54045,-158.358495982258,-178.022296414022,-145.409536485802,-177.111381405175,-165.527749403048,-179.234313482241,-1.03215225399782,23.8076352200766
2009-04-12 오후 7:48:51,0,0,0,0,0,0,0,0,0,0,0,0,0,0,0,0,0,0,0,1,1,1,1,1,1,1,1,1,1,0,0,1008,0,0,0,0,197.7444,True,-144.209417607118,-167.209601523894,-156.811471795628,119.894135407169,False,False,False,False,0,0,0,0,0,0,0,0,2820,436,0,1,2292,0.2353106,882,1865,-1.4745,0.8643892,-0.2616677,-30.00566,2.189651,-17.20375,-148.067395318286,172.7465353557,-145.409536485802,-177.2861249649,-165.527749403048,166.957950034114,-8.7041079178664,29.9938331740055
2009-04-12 오후 7:48:51,0,0,0,0,0,0,0,0,0,0,0,0,0,0,0,0,0,0,0,1,1,1,1,1,1,1,1,1,1,0,0,1009,0,0,0,0,211.8868,True,-144.209417607118,-167.209601523894,-156.811471795628,119.894135407169,False,False,False,False,0,0,0,0,0,0,0,0,2913,436,0,1,2292,0.2353106,986,1782,-1.346436,0.9751928,-0.3614475,-28.87403,5.833921,-17.5354,-138.113842603096,161.598027384838,-145.409536485802,175.920510602626,-165.527749403048,157.853075644055,-12.2659380181331,34.9731981732957
2009-04-12 오후 7:48:51,0,0,0,0,0,0,0,0,0,0,0,0,0,0,0,0,0,0,0,1,1,1,1,1,1,1,1,1,1,0,0,1010,0,0,0,0,193.5555,True,-144.209417607118,-167.209601523894,-156.811471795628,119.894135407169,False,False,False,False,0,0,0,0,0,0,0,0,2858,437,1,2,2913,0.9751928,1209,1834,-1.071838,0.9096638,-0.2989348,-27.22802,10.47208,-17.5354,-128.549159878112,149.154501886964,-145.409536485802,164.146316322656,-165.527749403048,151.168492446769,-12.0046405936978,39.2658764440004
2009-04-12 오후 7:48:51,0,0,0,0,0,0,0,0,0,0,0,0,0,0,0,0,0,0,0,1,1,1,1,1,1,1,1,1,1,0,0,1011,0,0,0,0,159.3655,True,-144.209417607118,-167.209601523894,-156.811471795628,119.894135407169,False,False,False,False,0,0,0,0,0,0,0,0,2912,438,1,1,2858,0.9096638,1624,1814,-0.5608136,0.9740013,-0.3229782,-24.86188,15.33111,-16.98265,-119.335371291549,137.925821155624,-145.409536485802,167.597720193291,-165.527749403048,149.587153389749,-16.0329691991818,56.3982311844401
2009-04-12 오후 7:48:51,0,0,0,0,0,0,0,0,0,0,0,0,0,0,0,0,0,0,0,1,1,1,1,1,1,1,1,1,1,0,0,1012,0,0,0,0,103.9267,True,-144.209417607118,-167.209601523894,-156.811471795628,119.894135407169,False,False,False,False,0,0,0,0,0,0,0,0,2887,439,1,2,2912,0.9740013,1937,1969,-0.1753906,0.9442154,-0.1366425,-21.98136,19.74841,-15.87715,-110.391593743254,128.798284197899,-145.409536485802,172.715580938381,-165.527749403048,160.349181936614,-8.09778092618697,76.7498726467603
2009-04-12 오후 7:48:51,0,0,0,0,0,0,0,0,0,0,0,0,0,0,0,0,0,0,0,1,1,1,1,1,1,1,1,1,1,0,0,1013,0,0,0,1,76.0444,True,-144.209417607118,-167.209601523894,-156.811471795628,119.894135407169,False,False,False,False,0,0,0,0,0,0,0,0,2824,439,0,2,2912,0.9740013,2218,2066,0.1706281,0.8691549,-0.02003245,-18.89509,23.28225,-14.6611,-101.669264588229,122.199105685995,-145.409536485802,164.524804425323,-165.527749403048,162.357681024327,-1.29560876526279,78.8188598897622
2009-04-12 오후 7:48:51,0,0,0,0,0,0,0,0,0,0,0,0,0,0,0,0,0,0,0,1,1,1,1,1,1,1,1,1,1,0,0,1014,0,0,0,1,73.20135,True,-144.209417607118,-167.209601523894,-156.811471795628,119.894135407169,False,False,False,False,0,0,0,0,0,0,0,0,2716,439,0,2,2912,0.9740013,2378,2166,0.3676495,0.7404798,0.1001841,-16.42607,25.71176,-13.5556,-93.095287141977,117.798824615106,-145.409536485802,130.529463944931,-165.527749403048,134.504907249445,6.90950943750458,62.769390661093
2009-04-12 오후 7:48:51,0,0,0,0,0,0,0,0,0,0,0,0,0,0,0,0,0,0,0,1,1,1,1,1,1,1,1,1,1,0,0,1015,0,0,0,1,90.02187,True,-144.209417607118,-167.209601523894,-156.811471795628,119.894135407169,False,False,False,False,0,0,0,0,0,0,0,0,2644,439,0,2,2912,0.9740013,2627,2316,0.6742639,0.6546963,0.2805089,-15.29444,27.14738,-12.4501,-84.6419649874133,114.636733897335,-145.409536485802,111.569958469432,-165.527749403048,103.818069421872,16.6188577035436,41.8760195749424
2009-04-12 오후 7:48:51,0,0,0,0,0,0,0,0,0,0,0,0,0,0,0,0,0,0,0,1,1,1,1,1,1,1,1,1,1,0,0,1016,0,0,0,0,140.4544,True,-144.209417607118,-167.209601523894,-156.811471795628,119.894135407169,False,False,False,False,0,0,0,0,0,0,0,0,2496,439,0,2,2912,0.9740013,2849,2113,0.947631,0.4783637,0.03646933,-16.3232,27.58911,-11.45515,-76.257320384954,112.548492351063,-145.409536485802,114.439170675592,-165.527749403048,113.759942513581,1.96765626402291,26.7675694138879
2009-04-12 오후 7:48:51,0,0,0,0,0,0,0,0,0,0,0,0,0,0,0,0,0,0,0,1,1,1,1,1,1,1,1,1,1,0,0,1017,0,0,0,0,233.4047,True,-144.209417607118,-167.209601523894,-156.811471795628,119.894135407169,False,False,False,False,0,0,0,0,0,0,0,0,2179,439,0,2,2912,0.9740013,2665,2075,0.7210565,0.1006782,-0.009212958,-19.7181,26.92652,-9.796899,-67.9676632232821,109.99332541275,-145.409536485802,110.112881043982,-165.527749403048,110.404147630948,-0.724997686526997,7.94795218900628
2009-04-12 오후 7:48:51,0,0,0,0,0,0,0,0,0,0,0,0,0,0,0,0,0,0,0,1,1,1,1,1,1,1,1,1,1,0,0,1018,0,0,0,0,315.5675,True,-144.209417607118,-167.209601523894,-156.811471795628,119.894135407169,False,False,False,False,0,0,0,0,0,0,0,0,1995,439,0,2,2912,0.9740013,2436,2240,0.4390697,-0.1185461,0.1891444,-24.45037,24.93873,-7.806998,-59.759592671246,107.382581225161,-145.409536485802,114.544826871863,-165.527749403048,107.295106992461,22.5820551037135,-13.926422745934
2009-04-12 오후 7:48:51,0,0,0,0,0,0,0,0,0,0,0,0,0,0,0,0,0,0,0,1,1,1,1,1,1,1,1,1,1,0,0,1019,0,0,0,0,372.6694,True,-144.209417607118,-167.209601523894,-156.811471795628,119.894135407169,False,False,False,False,0,0,0,0,0,0,0,0,1826,439,0,2,2912,0.9740013,2379,2367,0.3688808,-0.3198989,0.3418194,-29.59416,20.96316,-6.148746,-51.5585913650009,106.347042584717,-145.409536485802,124.288364930453,-165.527749403048,121.015406582075,34.9943683446282,-32.4605184267152
2009-04-12 오후 7:48:51,0,0,0,0,0,0,0,0,0,0,0,0,0,0,0,0,0,0,0,1,1,1,1,1,1,1,1,1,1,0,0,1020,0,0,0,0,409.9715,False,-144.209417607118,-167.209601523894,-156.811471795628,119.894135407169,False,False,False,False,0,0,0,0,0,0,0,0,1661,439,0,2,2912,0.9740013,2298,2486,0.2691388,-0.516486,0.4848771,-34.12069,14.88938,-5.153796,-43.2599832404217,109.092737649927,-145.409536485802,132.193093121071,-165.527749403048,136.619615778751,39.7789158582221,-42.9638638040503
2009-04-12 오후 7:48:51,0,0,0,0,0,0,0,0,0,0,0,0,0,0,0,0,0,0,0,1,1,1,1,1,1,1,1,1,1,0,0,1021,0,0,0,0,436.1237,False,-144.209417607118,-167.209601523894,-156.811471795628,119.894135407169,False,False,False,False,0,0,0,0,0,0,0,0,1461,439,0,2,2912,0.9740013,2029,2510,-0.06210332,-0.7547734,0.513729,-37.20695,7.15911,-4.822146,-34.5024512904147,123.962933737259,-145.409536485802,142.601850623685,-165.527749403048,166.924714333612,34.1509185293071,-55.5656447849939
2009-04-12 오후 7:48:51,0,0,0,0,0,0,0,0,0,0,0,0,0,0,0,0,0,0,0,1,1,1,1,1,1,1,1,1,1,0,0,1022,0,0,0,0,418.5467,False,-144.209417607118,-167.209601523894,-156.811471795628,119.894135407169,False,False,False,False,0,0,0,0,0,0,0,0,1469,440,1,1,1461,-0.7547734,1797,2413,-0.3477843,-0.7452419,0.397119,-37.92709,-1.123322,-5.374896,-34.8860449594864,-168.195430047558,-145.409536485802,163.754140520893,-165.527749403048,-135.98136192157,25.774920946337,-54.6887646087802
2009-04-12 오후 7:48:51,0,0,0,0,0,0,0,0,0,0,0,0,0,0,0,0,0,0,0,1,1,1,1,1,1,1,1,1,1,0,0,1023,0,0,0,0,362.4875,False,-144.209417607118,-167.209601523894,-156.811471795628,119.894135407169,False,False,False,False,0,0,0,0,0,0,0,0,1423,441,1,2,1469,-0.7452419,1534,2461,-0.6716381,-0.8000479,0.4548229,-36.48682,-8.853592,-6.812047,-34.0156705384571,-127.575065619442,-145.409536485802,-147.838966471684,-165.527749403048,-101.450746346113,23.5286390679545,-44.6052641295365
2009-04-12 오후 7:48:51,0,0,0,0,0,0,0,0,0,0,0,0,0,0,0,0,0,0,0,1,1,1,1,1,1,1,1,1,1,0,0,1024,0,0,0,0,260.6974,False,-144.209417607118,-167.209601523894,-156.811471795628,119.894135407169,False,False,False,False,0,0,0,0,0,0,0,0,1549,442,1,1,1423,-0.8000479,1531,2371,-0.6753322,-0.6499269,0.346628,-33.40055,-15.03781,-8.580848,-32.907171817299,-119.70987056374,-145.409536485802,-129.312979932995,-165.527749403048,-99.442506805589,20.2957329488691,-40.5697049150425
2009-04-12 오후 7:48:51,0,0,0,0,0,0,0,0,0,0,0,0,0,0,0,0,0,0,0,1,1,1,1,1,1,1,1,1,1,0,0,1025,0,0,0,0,187.6249,True,-144.209417607118,-167.209601523894,-156.811471795628,119.894135407169,False,False,False,False,0,0,0,0,0,0,0,0,1549,443,1,0,1549,-0.6499269,1373,2267,-0.8698908,-0.6499269,0.2216028,-29.79991,-19.4551,-10.018,-31.7216558830599,-117.245251443255,-145.409536485802,-123.65161371489,-165.527749403048,-108.409459185738,11.5344469561395,-35.9050101459093
2009-04-12 오후 7:48:51,0,0,0,0,0,0,0,0,0,0,0,0,0,0,0,0,0,0,0,1,1,1,1,1,1,1,1,1,1,0,0,1026,0,0,0,0,123.423,True,-144.209417607118,-167.209601523894,-156.811471795628,119.894135407169,False,False,False,False,0,0,0,0,0,0,0,0,1629,444,1,1,1549,-0.6499269,1260,2106,-1.009037,-0.554612,0.02805417,-26.40501,-21.88462,-11.3446,-30.5410201189828,-117.401430548816,-145.409536485802,-120.928922726804,-165.527749403048,-119.129154220128,1.39573603012229,-28.785822011735
2009-04-12 오후 7:48:51,0,0,0,0,0,0,0,0,0,0,0,0,0,0,0,0,0,0,0,1,1,1,1,1,1,1,1,1,1,0,0,1027,0,0,0,1,77.18768,True,-144.209417607118,-167.209601523894,-156.811471795628,119.894135407169,False,False,False,False,0,0,0,0,0,0,0,0,1549,445,1,2,1629,-0.554612,1499,2052,-0.7147365,-0.6499269,-0.03686276,-24.45037,-22.32635,-13.1134,-29.4361277377065,-120.427887370049,-145.409536485802,-128.004465952182,-165.527749403048,-131.229858863181,-2.18524496008177,-42.2431149220739
2009-04-12 오후 7:48:52,0,0,0,0,0,0,0,0,0,0,0,0,0,0,0,0,0,0,0,1,1,1,1,1,1,1,1,1,1,0,0,1028,0,0,0,1,84.98492,True,-144.209417607118,-167.209601523894,-156.811471795628,119.894135407169,False,False,False,False,0,0,0,0,0,0,0,0,1697,446,1,1,1549,-0.6499269,1377,1895,-0.8649653,-0.4735943,-0.2256027,-23.11299,-21.22202,-15.21385,-28.486301141157,-125.636357404669,-145.409536485802,-122.389394756271,-165.527749403048,-142.537592203974,-12.8861072419392,-27.9148823925519
2009-04-12 오후 7:48:52,0,0,0,0,0,0,0,0,0,0,0,0,0,0,0,0,0,0,0,1,1,1,1,1,1,1,1,1,1,0,0,1029,0,0,0,0,104.4219,True,-144.209417607118,-167.209601523894,-156.811471795628,119.894135407169,False,False,False,False,0,0,0,0,0,0,0,0,1757,446,0,1,1549,-0.6499269,1165,1890,-1.126019,-0.4021081,-0.2316136,-22.90724,-18.57165,-17.64595,-27.7737057975023,-133.535880991139,-145.409536485802,-126.264461600743,-165.527749403048,-146.796379076017,-10.9630717499904,-19.2789790361899
2009-04-12 오후 7:48:52,0,0,0,0,0,0,0,0,0,0,0,0,0,0,0,0,0,0,0,1,1,1,1,1,1,1,1,1,1,0,0,1030,0,0,0,0,126.198,True,-144.209417607118,-167.209601523894,-156.811471795628,119.894135407169,False,False,False,False,0,0,0,0,0,0,0,0,1841,446,0,1,1549,-0.6499269,927,1904,-1.419088,-0.3020274,-0.2147833,-23.42162,-14.92738,-19.85695,-27.3722221554471,-143.066153223084,-145.409536485802,-134.558537894808,-165.527749403048,-152.976662086124,-8.42075581260113,-11.8836711133077
2009-04-12 오후 7:48:52,0,0,0,0,0,0,0,0,0,0,0,0,0,0,0,0,0,0,0,1,1,1,1,1,1,1,1,1,1,0,0,1031,0,0,0,0,211.3893,True,-144.209417607118,-167.209601523894,-156.811471795628,119.894135407169,False,False,False,False,0,0,0,0,0,0,0,0,2215,446,0,1,1549,-0.6499269,801,1883,-1.574242,0.1435699,-0.2400287,-24.45037,-11.06224,-20.85191,-27.2581340906457,-152.053398095257,-145.409536485802,-140.802901739709,-165.527749403048,-161.508565567089,-8.633977243016,5.15171287016443
2009-04-12 오후 7:48:52,0,0,0,0,0,0,0,0,0,0,0,0,0,0,0,0,0,0,0,1,1,1,1,1,1,1,1,1,1,0,0,1032,0,0,0,0,284.1848,True,-144.209417607118,-167.209601523894,-156.811471795628,119.894135407169,False,False,False,False,0,0,0,0,0,0,0,0,2356,446,0,1,1549,-0.6499269,785,2003,-1.593944,0.3115625,-0.09576888,-25.47913,-8.411862,-21.07301,-27.2884737909389,-158.239240879349,-145.409536485802,-154.290462633355,-165.527749403048,-162.431897859848,-3.3746543155912,11.0405312178202
2009-04-12 오후 7:48:52,0,0,0,0,0,0,0,0,0,0,0,0,0,0,0,0,0,0,0,1,1,1,1,1,1,1,1,1,1,0,0,1033,0,0,0,0,343.8801,True,-144.209417607118,-167.209601523894,-156.811471795628,119.894135407169,False,False,False,False,0,0,0,0,0,0,0,0,2528,446,0,1,1549,-0.6499269,837,2100,-1.529912,0.5164896,0.02084118,-25.78776,-7.638835,-21.18356,-27.3297042278637,-160.170586150197,-145.409536485802,-162.030364698921,-165.527749403048,-160.279964799566,0.73946488096273,18.6527770477994
2009-04-12 오후 7:48:52,0,0,0,0,0,0,0,0,0,0,0,0,0,0,0,0,0,0,0,1,1,1,1,1,1,1,1,1,1,0,0,1034,0,0,0,0,350.1598,True,-144.209417607118,-167.209601523894,-156.811471795628,119.894135407169,False,False,False,False,0,0,0,0,0,0,0,0,2406,447,1,2,2528,0.5164896,762,1617,-1.622266,0.3711344,-0.5598047,-24.96475,-7.970132,-21.95741,-27.3187298214148,-160.050033311346,-145.409536485802,-132.243458936011,-165.527749403048,-178.332591908016,-18.5921761943884,12.2029431834181
2009-04-12 오후 7:48:52,0,0,0,0,0,0,0,0,0,0,0,0,0,0,0,0,0,0,0,1,1,1,1,1,1,1,1,1,1,0,0,1035,0,0,0,0,305.5859,True,-144.209417607118,-167.209601523894,-156.811471795628,119.894135407169,False,False,False,False,0,0,0,0,0,0,0,0,2343,447,0,2,2528,0.5164896,780,1803,-1.600101,0.2960739,-0.336202,-23.936,-7.8597,-22.73126,-27.2478990521745,-160.926346581859,-145.409536485802,-144.75154338192,-165.527749403048,-173.25476973184,-11.673396055746,10.263928463906
2009-04-12 오후 7:48:52,0,0,0,0,0,0,0,0,0,0,0,0,0,0,0,0,0,0,0,1,1,1,1,1,1,1,1,1,1,0,0,1036,0,0,0,0,254.9201,True,-144.209417607118,-167.209601523894,-156.811471795628,119.894135407169,False,False,False,False,0,0,0,0,0,0,0,0,2211,447,0,2,2528,0.5164896,930,1909,-1.415394,0.1388042,-0.2087724,-22.90724,-7.970132,-23.50511,-27.125829911328,-161.269181097059,-145.409536485802,-150.116916522153,-165.527749403048,-170.337595937328,-8.35120911892477,5.54137089344543
2009-04-12 오후 7:48:52,0,0,0,0,0,0,0,0,0,0,0,0,0,0,0,0,0,0,0,1,1,1,1,1,1,1,1,1,1,0,0,1037,0,0,0,0,193.9739,True,-144.209417607118,-167.209601523894,-156.811471795628,119.894135407169,False,False,False,False,0,0,0,0,0,0,0,0,2151,447,0,2,2528,0.5164896,1129,2052,-1.170348,0.067318,-0.03686276,-22.49574,-7.749268,-23.83676,-26.9690497491195,-161.99079058287,-145.409536485802,-159.799734199022,-165.527749403048,-164.118326207438,-1.80108865417722,3.29037661142241
2009-04-12 오후 7:48:52,0,0,0,0,0,0,0,0,0,0,0,0,0,0,0,0,0,0,0,1,1,1,1,1,1,1,1,1,1,0,0,1038,0,0,0,0,118.4156,True,-144.209417607118,-167.209601523894,-156.811471795628,119.894135407169,False,False,False,False,0,0,0,0,0,0,0,0,2218,448,1,1,2151,0.067318,1346,2189,-0.9031382,0.1471443,0.1278339,-22.90724,-7.749268,-23.50511,-26.6588464626797,-161.753414188456,-145.409536485802,-170.632154675474,-165.527749403048,-151.689417314387,7.95286992520869,9.16386844146747
2009-04-12 오후 7:48:52,0,0,0,0,0,0,0,0,0,0,0,0,0,0,0,0,0,0,0,1,1,1,1,1,1,1,1,1,1,0,0,1039,0,0,0,0,116.6447,True,-144.209417607118,-167.209601523894,-156.811471795628,119.894135407169,False,False,False,False,0,0,0,0,0,0,0,0,2236,448,0,1,2151,0.067318,1367,2096,-0.8772791,0.1685901,0.01603252,-23.936,-8.411862,-22.62071,-26.083198119431,-159.601563090443,-145.409536485802,-161.177765845207,-165.527749403048,-158.715769517363,1.0281702537117,10.8763599371561
2009-04-12 오후 7:48:52,0,0,0,0,0,0,0,0,0,0,0,0,0,0,0,0,0,0,0,1,1,1,1,1,1,1,1,1,1,0,0,1040,0,0,0,0,117.0406,True,-144.209417607118,-167.209601523894,-156.811471795628,119.894135407169,False,False,False,False,0,0,0,0,0,0,0,0,2235,449,1,2,2236,0.1685901,1382,1944,-0.8588083,0.1673987,-0.1666966,-24.86188,-9.295321,-21.62576,-36.3796741422793,-156.74068371507,-145.409536485802,-142.124611645998,-165.527749403048,-168.45999059487,-10.7865420957968,10.8325169528738
2009-04-12 오후 7:48:52,0,0,0,0,0,0,0,0,0,0,0,0,0,0,0,0,0,0,0,1,1,1,1,1,1,1,1,1,1,0,0,1041,0,0,0,1,78.43937,True,-144.209417607118,-167.209601523894,-156.811471795628,119.894135407169,False,False,False,False,0,0,0,0,0,0,0,0,2191,449,0,2,2236,0.1685901,1291,1772,-0.9708642,0.1149755,-0.3734691,-25.58201,-9.847484,-20.85191,-46.2646312676345,-154.720586966147,-145.409536485802,-124.17277080894,-165.527749403048,-174.937195588576,-20.9072329550711,6.30730104989466
2009-04-12 오후 7:48:52,0,0,0,0,0,0,0,0,0,0,0,0,0,0,0,0,0,0,0,1,1,1,1,1,1,1,1,1,1,0,0,1042,0,0,0,1,52.15781,True,-144.209417607118,-167.209601523894,-156.811471795628,119.894135407169,False,False,False,False,0,0,0,0,0,0,0,0,2197,450,1,1,2191,0.1149755,1334,1888,-0.9179147,0.1221241,-0.2340179,-25.99351,-10.06835,-20.29915,-55.7262908342726,-153.618658886971,-145.409536485802,-133.972603286669,-165.527749403048,-168.344601379031,-14.1827332785015,7.34612714576353
2009-04-12 오후 7:48:52,0,0,0,0,0,0,0,0,0,0,0,0,0,0,0,0,0,0,0,1,1,1,1,1,1,1,1,1,1,0,0,1043,0,0,0,1,25.7412,True,-144.209417607118,-167.209601523894,-156.811471795628,119.894135407169,False,False,False,False,0,0,0,0,0,0,0,0,2214,450,0,1,2191,0.1149755,1309,1991,-0.9486994,0.1423785,-0.1101949,-25.89063,-9.957916,-20.4097,-64.8487324708767,-153.992201932679,-145.409536485802,-145.629140727997,-165.527749403048,-161.451997940383,-6.55268840243206,8.47894390168776
2009-04-12 오후 7:48:52,0,0,0,0,0,0,0,0,0,0,0,0,0,0,0,0,0,0,0,1,1,1,1,1,1,1,1,1,1,0,0,1044,0,0,0,1,25.90246,True,-144.209417607118,-167.209601523894,-156.811471795628,119.894135407169,False,False,False,False,0,0,0,0,0,0,0,0,2196,451,1,2,2214,0.1423785,1297,2062,-0.9634759,0.1209326,-0.02484111,-25.58201,-9.847484,-20.63081,-73.7013065031843,-154.483948232163,-145.409536485802,-152.835454755224,-165.527749403048,-156.3594225556,-1.46542519727588,7.15183088887829
2009-04-12 오후 7:48:52,0,0,0,0,0,0,0,0,0,0,0,0,0,0,0,0,0,0,0,1,1,1,1,1,1,1,1,1,1,0,0,1045,0,0,0,1,18.45264,True,-144.209417607118,-167.209601523894,-156.811471795628,119.894135407169,False,False,False,False,0,0,0,0,0,0,0,0,2185,451,0,2,2214,0.1423785,1262,2061,-1.006574,0.1078268,-0.02604328,-25.37626,-9.957916,-20.96246,-82.3509897661968,-154.590608466242,-145.409536485802,-152.888457023183,-165.527749403048,-156.434336070417,-1.47366560706608,6.11232476230019
2009-04-12 오후 7:48:52,0,0,0,0,0,0,0,0,0,0,0,0,0,0,0,0,0,0,0,1,1,1,1,1,1,1,1,1,1,0,0,1046,0,0,0,1,20.62765,True,-144.209417607118,-167.209601523894,-156.811471795628,119.894135407169,False,False,False,False,0,0,0,0,0,0,0,0,2178,451,0,2,2214,0.1423785,1267,2039,-1.000417,0.09948679,-0.05249092,-25.27338,-10.17878,-20.96246,-90.8478270559627,-154.100091600808,-145.409536485802,-150.449314508301,-165.527749403048,-157.642500911943,-2.98878341876156,5.67137244523922
2009-04-12 오후 7:48:52,0,0,0,0,0,0,0,0,0,0,0,0,0,0,0,0,0,0,0,1,1,1,1,1,1,1,1,1,1,0,0,1047,0,0,0,1,19.85219,True,-144.209417607118,-167.209601523894,-156.811471795628,119.894135407169,False,False,False,False,0,0,0,0,0,0,0,0,2167,451,0,2,2214,0.1423785,1225,2033,-1.052136,0.08638098,-0.05970391,-25.47913,-10.62051,-20.74136,-99.2078966377883,-152.885506381461,-145.409536485802,-148.904680887881,-165.527749403048,-156.669294577865,-3.23692419130813,4.68598745698382
2009-04-12 오후 7:48:52,0,0,0,0,0,0,0,0,0,0,0,0,0,0,0,0,0,0,0,1,1,1,1,1,1,1,1,1,1,0,0,1048,0,0,0,1,17.81108,True,-144.209417607118,-167.209601523894,-156.811471795628,119.894135407169,False,False,False,False,0,0,0,0,0,0,0,0,2153,451,0,2,2214,0.1423785,1191,1996,-1.094003,0.06970087,-0.104184,-25.58201,-10.84138,-20.4097,-107.475765496008,-152.023331602531,-145.409536485802,-145.171121902634,-165.527749403048,-158.161936798323,-5.42904288301587,3.62911429378049
2009-04-12 오후 7:48:52,0,0,0,0,0,0,0,0,0,0,0,0,0,0,0,0,0,0,0,1,1,1,1,1,1,1,1,1,1,0,0,1049,0,0,0,1,19.69772,True,-144.209417607118,-167.209601523894,-156.811471795628,119.894135407169,False,False,False,False,0,0,0,0,0,0,0,0,2158,452,1,1,2153,0.06970087,1221,1972,-1.057061,0.07565805,-0.133036,-25.78776,-11.06224,-20.1886,-115.640539478895,-151.279687926456,-145.409536485802,-142.133408929649,-165.527749403048,-159.211381703917,-7.15510980656672,4.06197027535406
2009-04-12 오후 7:48:52,0,0,0,0,0,0,0,0,0,0,0,0,0,0,0,0,0,0,0,1,1,1,1,1,1,1,1,1,1,0,0,1050,0,0,0,1,19.05256,True,-144.209417607118,-167.209601523894,-156.811471795628,119.894135407169,False,False,False,False,0,0,0,0,0,0,0,0,2189,452,0,1,2153,0.06970087,1257,1999,-1.012731,0.1125926,-0.1005775,-25.78776,-10.95181,-20.1886,-123.731281041369,-151.521285377778,-145.409536485802,-144.440892718089,-165.527749403048,-157.918181007224,-5.6371207540989,6.31312549370939
2009-04-12 오후 7:48:52,0,0,0,0,0,0,0,0,0,0,0,0,0,0,0,0,0,0,0,1,1,1,1,1,1,1,1,1,1,0,0,1051,0,0,0,1,14.06903,True,-144.209417607118,-167.209601523894,-156.811471795628,119.894135407169,False,False,False,False,0,0,0,0,0,0,0,0,2176,453,1,2,2189,0.1125926,1275,1986,-0.9905664,0.09710392,-0.1162057,-25.78776,-10.84138,-20.1886,-131.797256337912,-151.763989319745,-145.409536485802,-143.273681690826,-165.527749403048,-159.215466157041,-6.65929015301622,5.56084888541101
2009-04-12 오후 7:48:52,0,0,0,0,0,0,0,0,0,0,0,0,0,0,0,0,0,0,0,1,1,1,1,1,1,1,1,1,1,0,0,1052,0,0,0,1,12.02536,True,-144.209417607118,-167.209601523894,-156.811471795628,119.894135407169,False,False,False,False,0,0,0,0,0,0,0,0,2181,454,1,1,2176,0.09710392,1288,2022,-0.9745584,0.1030611,-0.07292773,-25.89063,-10.62051,-20.1886,-139.964304773793,-152.252730335995,-145.409536485802,-146.984892297109,-165.527749403048,-157.179578010757,-4.25591306994975,6.01997548207974
2009-04-12 오후 7:48:52,0,0,0,0,0,0,0,0,0,0,0,0,0,0,0,0,0,0,0,1,1,1,1,1,1,1,1,1,1,0,0,1053,0,0,0,1,11.1964,True,-144.209417607118,-167.209601523894,-156.811471795628,119.894135407169,False,False,False,False,0,0,0,0,0,0,0,0,2171,455,1,2,2181,0.1030611,1264,2028,-1.004112,0.09114673,-0.06571474,-25.89063,-10.51008,-20.29915,-148.607731583526,-152.62671051381,-145.409536485802,-148.021469126307,-165.527749403048,-156.962118447962,-3.72913131511793,5.17571244736056
2009-04-12 오후 7:48:52,0,0,0,0,0,0,0,0,0,0,0,0,0,0,0,0,0,0,0,1,1,1,1,1,1,1,1,1,1,0,0,1054,0,0,0,1,12.65837,True,-144.209417607118,-167.209601523894,-156.811471795628,119.894135407169,False,False,False,False,0,0,0,0,0,0,0,0,2190,456,1,1,2171,0.09114673,1286,2030,-0.9770212,0.113784,-0.06331041,-25.99351,-10.28921,-20.29915,-148.136639776092,-153.120505870045,-145.409536485802,-148.608141394876,-165.527749403048,-157.45243040772,-3.68272871744416,6.628972223951
2009-04-12 오후 7:48:52,0,0,0,0,0,0,0,0,0,0,0,0,0,0,0,0,0,0,0,1,1,1,1,1,1,1,1,1,1,0,0,1055,0,0,0,1,12.60704,True,-144.209417607118,-167.209601523894,-156.811471795628,119.894135407169,False,False,False,False,0,0,0,0,0,0,0,0,2180,457,1,2,2190,0.113784,1261,2028,-1.007806,0.1018697,-0.06571474,-25.99351,-10.17878,-20.29915,-148.942697720801,-153.369042793563,-145.409536485802,-148.787488502102,-165.527749403048,-157.708466878947,-3.71187228085895,5.75974143272084
2009-04-12 오후 7:48:52,0,0,0,0,0,0,0,0,0,0,0,0,0,0,0,0,0,0,0,1,1,1,1,1,1,1,1,1,1,0,0,1056,0,0,0,1,9.823442,True,-144.209417607118,-167.209601523894,-156.811471795628,119.894135407169,False,False,False,False,0,0,0,0,0,0,0,0,2171,457,0,2,2190,0.113784,1252,2020,-1.018888,0.09114673,-0.07533206,-25.99351,-10.06835,-20.29915,-150.002346929016,-153.618658886971,-145.409536485802,-148.357992546713,-165.527749403048,-158.490386935131,-4.21174309036092,5.09806258800763
2009-04-12 오후 7:48:52,0,0,0,0,0,0,0,0,0,0,0,0,0,0,0,0,0,0,0,1,1,1,1,1,1,1,1,1,1,0,0,1057,0,0,0,1,6.745369,True,-144.209417607118,-167.209601523894,-156.811471795628,119.894135407169,False,False,False,False,0,0,0,0,0,0,0,0,2182,458,1,1,2171,0.09114673,1270,2023,-0.9967233,0.1042525,-0.07172556,-26.19926,-9.957916,-20.29915,-151.1468407471,-153.869367810645,-145.409536485802,-148.78075393558,-165.527749403048,-158.636184153154,-4.09373150876826,5.95586519209588
2009-04-12 오후 7:48:52,0,0,0,0,0,0,0,0,0,0,0,0,0,0,0,0,0,0,0,1,1,1,1,1,1,1,1,1,1,0,0,1058,0,0,0,1,6.927075,True,-144.209417607118,-167.209601523894,-156.811471795628,119.894135407169,False,False,False,False,0,0,0,0,0,0,0,0,2190,458,0,1,2171,0.09114673,1280,2029,-0.9844095,0.113784,-0.06451257,-26.30214,-9.957916,-20.1886,-152.282591923046,-153.745440858344,-145.409536485802,-149.165525812284,-165.527749403048,-158.127157475069,-3.72474804121807,6.57934663076262
2009-04-12 오후 7:48:53,0,0,0,0,0,0,0,0,0,0,0,0,0,0,0,0,0,0,0,1,1,1,1,1,1,1,1,1,1,0,0,1059,0,0,0,1,8.053532,True,-144.209417607118,-167.209601523894,-156.811471795628,119.894135407169,False,False,False,False,0,0,0,0,0,0,0,0,2194,458,0,1,2171,0.09114673,1281,2030,-0.9831781,0.1185498,-0.06331041,-26.30214,-10.06835,-20.1886,-153.315903921821,-153.493898651591,-145.409536485802,-149.015780744921,-165.527749403048,-157.810100093797,-3.65797312368427,6.86135062744046
2009-04-12 오후 7:48:53,0,0,0,0,0,0,0,0,0,0,0,0,0,0,0,0,0,0,0,1,1,1,1,1,1,1,1,1,1,0,0,1060,0,0,0,1,8.027297,True,-144.209417607118,-167.209601523894,-156.811471795628,119.894135407169,False,False,False,False,0,0,0,0,0,0,0,0,2184,459,1,2,2194,0.1185498,1264,2011,-1.004112,0.1066354,-0.08615155,-26.30214,-9.957916,-20.07805,-154.190400362014,-153.620421075776,-145.409536485802,-147.493891654437,-165.527749403048,-159.233511516828,-4.87660949898242,6.0399939127634
2009-04-12 오후 7:48:53,0,0,0,0,0,0,0,0,0,0,0,0,0,0,0,0,0,0,0,1,1,1,1,1,1,1,1,1,1,0,0,1061,0,0,0,1,7.712611,True,-144.209417607118,-167.209601523894,-156.811471795628,119.894135407169,False,False,False,False,0,0,0,0,0,0,0,0,2196,460,1,1,2184,0.1066354,1273,2017,-0.9930291,0.1209326,-0.07893856,-26.40501,-9.957916,-20.07805,-154.818040105225,-153.620421075776,-145.409536485802,-148.00843712537,-165.527749403048,-158.867891490557,-4.51184367324471,6.92175724734688
2009-04-12 오후 7:48:53,0,0,0,0,0,0,0,0,0,0,0,0,0,0,0,0,0,0,0,1,1,1,1,1,1,1,1,1,1,0,0,1062,0,0,0,1,8.084515,True,-144.209417607118,-167.209601523894,-156.811471795628,119.894135407169,False,False,False,False,0,0,0,0,0,0,0,0,2194,461,1,2,2196,0.1209326,1272,2011,-0.9942605,0.1185498,-0.08615155,-26.40501,-9.957916,-20.07805,-155.147856279866,-153.620421075776,-145.409536485802,-147.458634217941,-165.527749403048,-159.298767144158,-4.91758508447379,6.77436475326577
2009-04-12 오후 7:48:53,0,0,0,0,0,0,0,0,0,0,0,0,0,0,0,0,0,0,0,1,1,1,1,1,1,1,1,1,1,0,0,1063,0,0,0,1,7.937254,True,-144.209417607118,-167.209601523894,-156.811471795628,119.894135407169,False,False,False,False,0,0,0,0,0,0,0,0,2193,461,0,2,2196,0.1209326,1279,2018,-0.9856408,0.1173583,-0.07773639,-26.40501,-9.957916,-20.07805,-155.196828736215,-153.620421075776,-145.409536485802,-148.048789882987,-165.527749403048,-158.826377600782,-4.47801844204069,6.76930443686443
2009-04-12 오후 7:48:53,0,0,0,0,0,0,0,0,0,0,0,0,0,0,0,0,0,0,0,1,1,1,1,1,1,1,1,1,1,0,0,1064,0,0,0,1,6.479535,True,-144.209417607118,-167.209601523894,-156.811471795628,119.894135407169,False,False,False,False,0,0,0,0,0,0,0,0,2204,462,1,1,2193,0.1173583,1286,2030,-0.9770212,0.1304641,-0.06331041,-26.50789,-9.737051,-20.07805,-155.068366538306,-154.128477866999,-145.409536485802,-149.645701771314,-165.527749403048,-158.49516806755,-3.6750208489658,7.59012626235212
2009-04-12 오후 7:48:53,0,0,0,0,0,0,0,0,0,0,0,0,0,0,0,0,0,0,0,1,1,1,1,1,1,1,1,1,1,0,0,1065,0,0,0,1,5.809475,True,-144.209417607118,-167.209601523894,-156.811471795628,119.894135407169,False,False,False,False,0,0,0,0,0,0,0,0,2201,463,1,2,2204,0.1304641,1282,2032,-0.9819467,0.1268898,-0.06090607,-26.40501,-10.06835,-20.07805,-154.855797390957,-153.368045585944,-145.409536485802,-149.091773429626,-165.527749403048,-157.550129433608,-3.52007843453088,7.34914523560303
2009-04-12 오후 7:48:53,0,0,0,0,0,0,0,0,0,0,0,0,0,0,0,0,0,0,0,1,1,1,1,1,1,1,1,1,1,0,0,1066,0,0,0,1,5.606915,True,-144.209417607118,-167.209601523894,-156.811471795628,119.894135407169,False,False,False,False,0,0,0,0,0,0,0,0,2192,463,0,2,2204,0.1304641,1266,2017,-1.001649,0.1161669,-0.07893856,-26.40501,-10.06835,-20.07805,-154.646984847651,-153.368045585944,-145.409536485802,-147.798777638608,-165.527749403048,-158.56404369514,-4.47620844191064,6.59509576632821
2009-04-12 오후 7:48:53,0,0,0,0,0,0,0,0,0,0,0,0,0,0,0,0,0,0,0,1,1,1,1,1,1,1,1,1,1,0,0,1067,0,0,0,1,5.695393,True,-144.209417607118,-167.209601523894,-156.811471795628,119.894135407169,False,False,False,False,0,0,0,0,0,0,0,0,2198,464,1,1,2192,0.1161669,1272,2029,-0.9942605,0.1233155,-0.06451257,-26.30214,-10.17878,-20.07805,-154.402942188606,-153.116790247136,-145.409536485802,-148.617594376687,-165.527749403048,-157.4654350879,-3.68428087793304,7.05545350459483
2009-04-12 오후 7:48:53,0,0,0,0,0,0,0,0,0,0,0,0,0,0,0,0,0,0,0,1,1,1,1,1,1,1,1,1,1,0,0,1068,0,0,0,1,3.887078,True,-144.209417607118,-167.209601523894,-156.811471795628,119.894135407169,False,False,False,False,0,0,0,0,0,0,0,0,2195,465,1,2,2198,0.1233155,1258,2026,-1.0115,0.1197412,-0.06811907,-26.30214,-10.17878,-20.07805,-154.148189792943,-153.116790247136,-145.409536485802,-148.419450588865,-165.527749403048,-157.609128607659,-3.82610932916153,6.73612935429204
2009-04-12 오후 7:48:53,0,0,0,0,0,0,0,0,0,0,0,0,0,0,0,0,0,0,0,1,1,1,1,1,1,1,1,1,1,0,0,1069,0,0,0,1,4.181432,True,-144.209417607118,-167.209601523894,-156.811471795628,119.894135407169,False,False,False,False,0,0,0,0,0,0,0,0,2192,465,0,2,2198,0.1233155,1241,2045,-1.032433,0.1161669,-0.04527792,-26.30214,-10.17878,-20.07805,-153.870884112641,-153.116790247136,-145.409536485802,-150.138677504849,-165.527749403048,-156.1253792935,-2.49540192930134,6.41366801272609
2009-04-12 오후 7:48:53,0,0,0,0,0,0,0,0,0,0,0,0,0,0,0,0,0,0,0,1,1,1,1,1,1,1,1,1,1,0,0,1070,0,0,0,1,4.106017,True,-144.209417607118,-167.209601523894,-156.811471795628,119.894135407169,False,False,False,False,0,0,0,0,0,0,0,0,2196,466,1,1,2192,0.1161669,1277,2037,-0.9881036,0.1209326,-0.05489525,-26.40501,-10.28921,-19.9675,-153.589152469756,-152.738042597281,-145.409536485802,-148.932329493641,-165.527749403048,-156.49948241472,-3.156361683161,6.96701322701374
2009-04-12 오후 7:48:53,0,0,0,0,0,0,0,0,0,0,0,0,0,0,0,0,0,0,0,1,1,1,1,1,1,1,1,1,1,0,0,1071,0,0,0,1,4.106017,True,-144.209417607118,-167.209601523894,-156.811471795628,119.894135407169,False,False,False,False,0,0,0,0,0,0,0,0,2193,467,1,2,2196,0.1209326,1270,2008,-0.9967233,0.1173583,-0.08975805,-26.40501,-10.28921,-19.9675,-153.374657209061,-152.738042597281,-145.409536485802,-146.336283873146,-165.527749403048,-158.60938249085,-5.11066812900771,6.68850500653048
2009-04-12 오후 7:48:53,0,0,0,0,0,0,0,0,0,0,0,0,0,0,0,0,0,0,0,1,1,1,1,1,1,1,1,1,1,0,0,1072,0,0,0,1,3.059309,True,-144.209417607118,-167.209601523894,-156.811471795628,119.894135407169,False,False,False,False,0,0,0,0,0,0,0,0,2198,468,1,1,2193,0.1173583,1272,2013,-0.9942605,0.1233155,-0.08374722,-26.50789,-10.39965,-19.85695,-153.237684595446,-152.357683022781,-145.409536485802,-146.423396105821,-165.527749403048,-157.880259796952,-4.77825690936835,7.04544300859253
2009-04-12 오후 7:48:53,0,0,0,0,0,0,0,0,0,0,0,0,0,0,0,0,0,0,0,1,1,1,1,1,1,1,1,1,1,0,0,1073,0,0,0,1,2.394655,True,-144.209417607118,-167.209601523894,-156.811471795628,119.894135407169,False,False,False,False,0,0,0,0,0,0,0,0,2197,469,1,2,2198,0.1233155,1270,2036,-0.9967233,0.1221241,-0.05609741,-26.50789,-10.28921,-19.85695,-153.171677647307,-152.608309984186,-145.409536485802,-148.751561707068,-165.527749403048,-156.414132370852,-3.19745167432098,6.97445172990671
2009-04-12 오후 7:48:53,0,0,0,0,0,0,0,0,0,0,0,0,0,0,0,0,0,0,0,1,1,1,1,1,1,1,1,1,1,0,0,1074,0,0,0,1,2.97647,True,-144.209417607118,-167.209601523894,-156.811471795628,119.894135407169,False,False,False,False,0,0,0,0,0,0,0,0,2202,470,1,1,2197,0.1221241,1268,2026,-0.999186,0.1280813,-0.06811907,-26.61076,-10.39965,-19.85695,-153.132267455796,-152.357683022781,-145.409536485802,-147.639456646028,-165.527749403048,-156.90765451952,-3.86852395013367,7.28792539629856
2009-04-12 오후 7:48:53,0,0,0,0,0,0,0,0,0,0,0,0,0,0,0,0,0,0,0,1,1,1,1,1,1,1,1,1,1,0,0,1075,0,0,0,1,3.072052,True,-144.209417607118,-167.209601523894,-156.811471795628,119.894135407169,False,False,False,False,0,0,0,0,0,0,0,0,2193,471,1,2,2202,0.1280813,1262,2026,-1.006574,0.1173583,-0.06811907,-26.61076,-10.17878,-19.85695,-153.096900736273,-152.860084417371,-145.409536485802,-148.138565889438,-165.527749403048,-157.367544816715,-3.84556981876737,6.63515354514986
2009-04-12 오후 7:48:53,0,0,0,0,0,0,0,0,0,0,0,0,0,0,0,0,0,0,0,1,1,1,1,1,1,1,1,1,1,0,0,1076,0,0,0,1,3.082207,True,-144.209417607118,-167.209601523894,-156.811471795628,119.894135407169,False,False,False,False,0,0,0,0,0,0,0,0,2197,472,1,1,2193,0.1173583,1281,2034,-0.9831781,0.1221241,-0.05850174,-26.61076,-10.28921,-19.85695,-153.038297713195,-152.608309984186,-145.409536485802,-148.518215124264,-165.527749403048,-156.617945215685,-3.37932893974784,7.06827248900647
2009-04-12 오후 7:48:53,0,0,0,0,0,0,0,0,0,0,0,0,0,0,0,0,0,0,0,1,1,1,1,1,1,1,1,1,1,0,0,1077,0,0,0,1,2.817357,True,-144.209417607118,-167.209601523894,-156.811471795628,119.894135407169,False,False,False,False,0,0,0,0,0,0,0,0,2194,473,1,2,2197,0.1221241,1271,2028,-0.9954919,0.1185498,-0.06571474,-26.71364,-10.28921,-19.7464,-152.972263444299,-152.47742989931,-145.409536485802,-147.893457720882,-165.527749403048,-156.881371951594,-3.75032539211248,6.7765674892731
2009-04-12 오후 7:48:53,0,0,0,0,0,0,0,0,0,0,0,0,0,0,0,0,0,0,0,1,1,1,1,1,1,1,1,1,1,0,0,1078,0,0,0,1,3.391165,True,-144.209417607118,-167.209601523894,-156.811471795628,119.894135407169,False,False,False,False,0,0,0,0,0,0,0,0,2202,474,1,1,2194,0.1185498,1281,2029,-0.9831781,0.1280813,-0.06451257,-26.71364,-10.28921,-19.7464,-152.921556119901,-152.47742989931,-145.409536485802,-147.953112593093,-165.527749403048,-156.874733007721,-3.72279204579451,7.4065273623676
2009-04-12 오후 7:48:53,0,0,0,0,0,0,0,0,0,0,0,0,0,0,0,0,0,0,0,1,1,1,1,1,1,1,1,1,1,0,0,1079,0,0,0,1,3.38886,True,-144.209417607118,-167.209601523894,-156.811471795628,119.894135407169,False,False,False,False,0,0,0,0,0,0,0,0,2202,475,1,0,2202,0.1280813,1277,2020,-0.9881036,0.1280813,-0.07533206,-26.81651,-10.28921,-19.63585,-152.904671892272,-152.345402342653,-145.409536485802,-147.028345960609,-165.527749403048,-157.390999686325,-4.32370739321718,7.36455243482328
2009-04-12 오후 7:48:53,0,0,0,0,0,0,0,0,0,0,0,0,0,0,0,0,0,0,0,1,1,1,1,1,1,1,1,1,1,0,0,1080,0,0,0,1,3.443744,True,-144.209417607118,-167.209601523894,-156.811471795628,119.894135407169,False,False,False,False,0,0,0,0,0,0,0,0,2200,476,1,2,2202,0.1280813,1278,2032,-0.9868722,0.1256984,-0.06090607,-26.81651,-10.17878,-19.5253,-152.918523515909,-152.466419634368,-145.409536485802,-148.223670046496,-165.527749403048,-156.617439781686,-3.50337029771715,7.24506937435131
2009-04-12 오후 7:48:53,0,0,0,0,0,0,0,0,0,0,0,0,0,0,0,0,0,0,0,1,1,1,1,1,1,1,1,1,1,0,0,1081,0,0,0,1,3.455069,True,-144.209417607118,-167.209601523894,-156.811471795628,119.894135407169,False,False,False,False,0,0,0,0,0,0,0,0,2196,476,0,2,2202,0.1280813,1291,2041,-0.9708642,0.1209326,-0.05008658,-26.81651,-10.28921,-19.5253,-152.947661102908,-152.21219999346,-145.409536485802,-148.712383741989,-165.527749403048,-155.72379149106,-2.93064527543324,7.0909632312029
2009-04-12 오후 7:48:53,0,0,0,0,0,0,0,0,0,0,0,0,0,0,0,0,0,0,0,1,1,1,1,1,1,1,1,1,1,0,0,1082,0,0,0,1,3.218598,True,-144.209417607118,-167.209601523894,-156.811471795628,119.894135407169,False,False,False,False,0,0,0,0,0,0,0,0,2197,477,1,1,2196,0.1209326,1283,2017,-0.9807153,0.1221241,-0.07893856,-26.71364,-10.39965,-19.63585,-152.965528877777,-152.093177116983,-145.409536485802,-146.449200560505,-165.527749403048,-157.386081950123,-4.56674217247233,7.07559701311766
2009-04-12 오후 7:48:53,0,0,0,0,0,0,0,0,0,0,0,0,0,0,0,0,0,0,0,1,1,1,1,1,1,1,1,1,1,0,0,1083,0,0,0,1,2.783882,True,-144.209417607118,-167.209601523894,-156.811471795628,119.894135407169,False,False,False,False,0,0,0,0,0,0,0,0,2200,477,0,1,2196,0.1209326,1254,2022,-1.016425,0.1256984,-0.07292773,-26.71364,-10.39965,-19.63585,-152.975815142667,-152.093177116983,-145.409536485802,-147.10190709797,-165.527749403048,-156.852043119298,-4.07297371010695,7.03191581894132
2009-04-12 오후 7:48:53,0,0,0,0,0,0,0,0,0,0,0,0,0,0,0,0,0,0,0,1,1,1,1,1,1,1,1,1,1,0,0,1084,0,0,0,1,3.585997,True,-144.209417607118,-167.209601523894,-156.811471795628,119.894135407169,False,False,False,False,0,0,0,0,0,0,0,0,2206,477,0,1,2196,0.1209326,1252,2042,-1.018888,0.132847,-0.04888442,-26.71364,-10.51008,-19.63585,-152.962988047406,-151.842113023472,-145.409536485802,-148.628809547304,-165.527749403048,-155.134551071363,-2.72382202472337,7.42012285391051
2009-04-12 오후 7:48:53,0,0,0,0,0,0,0,0,0,0,0,0,0,0,0,0,0,0,0,1,1,1,1,1,1,1,1,1,1,0,0,1085,0,0,0,1,3.162278,True,-144.209417607118,-167.209601523894,-156.811471795628,119.894135407169,False,False,False,False,0,0,0,0,0,0,0,0,2197,478,1,2,2206,0.132847,1209,2028,-1.071838,0.1221241,-0.06571474,-26.71364,-10.28921,-19.63585,-152.954190763755,-152.345402342653,-145.409536485802,-148.099975320627,-165.527749403048,-156.44837893935,-3.48593431886999,6.48811152515053
2009-04-12 오후 7:48:53,0,0,0,0,0,0,0,0,0,0,0,0,0,0,0,0,0,0,0,1,1,1,1,1,1,1,1,1,1,0,0,1086,0,0,0,1,6.78233,True,-144.209417607118,-167.209601523894,-156.811471795628,119.894135407169,False,False,False,False,0,0,0,0,0,0,0,0,2218,479,1,1,2197,0.1221241,1234,2050,-1.041053,0.1471443,-0.0392671,-26.71364,-10.17878,-19.63585,-152.937893932395,-152.598802360861,-145.409536485802,-150.15455086448,-165.527749403048,-155.273449798325,-2.13885559589951,8.03935292670574
2009-04-12 오후 7:48:53,0,0,0,0,0,0,0,0,0,0,0,0,0,0,0,0,0,0,0,1,1,1,1,1,1,1,1,1,1,0,0,1087,0,0,0,1,17.56372,True,-144.209417607118,-167.209601523894,-156.811471795628,119.894135407169,False,False,False,False,0,0,0,0,0,0,0,0,2251,479,0,1,2197,0.1221241,1197,2039,-1.086614,0.1864617,-0.05249092,-26.81651,-9.957916,-19.63585,-152.929766007283,-153.109099454131,-145.409536485802,-149.994779079415,-165.527749403048,-156.52993139804,-2.72584866991616,9.72592726958876
2009-04-12 오후 7:48:53,0,0,0,0,0,0,0,0,0,0,0,0,0,0,0,0,0,0,0,1,1,1,1,1,1,1,1,1,1,0,0,1088,0,0,0,1,33.20391,True,-144.209417607118,-167.209601523894,-156.811471795628,119.894135407169,False,False,False,False,0,0,0,0,0,0,0,0,2295,479,0,1,2197,0.1221241,1075,2047,-1.236843,0.2388849,-0.04287359,-27.02227,-9.626618,-19.63585,-152.938030536179,-153.883260415417,-145.409536485802,-151.841402683798,-165.527749403048,-156.516475925375,-1.94929436765638,10.9251488321711
2009-04-12 오후 7:48:54,0,0,0,0,0,0,0,0,0,0,0,0,0,0,0,0,0,0,0,1,1,1,1,1,1,1,1,1,1,0,0,1089,0,0,0,1,51.34792,True,-144.209417607118,-167.209601523894,-156.811471795628,119.894135407169,False,False,False,False,0,0,0,0,0,0,0,0,2345,479,0,1,2197,0.1221241,907,1979,-1.443715,0.2984567,-0.1246208,-27.22802,-8.743159,-19.63585,-153.004570239073,-155.998255812668,-145.409536485802,-150.140344071007,-165.527749403048,-161.817986796869,-4.83184700048309,11.6380301899974
2009-04-12 오후 7:48:54,0,0,0,0,0,0,0,0,0,0,0,0,0,0,0,0,0,0,0,1,1,1,1,1,1,1,1,1,1,0,0,1090,0,0,0,1,64.75422,True,-144.209417607118,-167.209601523894,-156.811471795628,119.894135407169,False,False,False,False,0,0,0,0,0,0,0,0,2373,479,0,1,2197,0.1221241,669,1951,-1.736785,0.3318169,-0.1582815,-27.63952,-6.865808,-19.7464,-153.22588202856,-160.827486423812,-145.409536485802,-154.489863175984,-165.527749403048,-166.819447458124,-5.11523837933609,10.7725624061131
2009-04-12 오후 7:48:54,0,0,0,0,0,0,0,0,0,0,0,0,0,0,0,0,0,0,0,1,1,1,1,1,1,1,1,1,1,0,0,1091,0,0,0,1,72.35978,True,-144.209417607118,-167.209601523894,-156.811471795628,119.894135407169,False,False,False,False,0,0,0,0,0,0,0,0,2389,479,0,1,2197,0.1221241,496,1904,-1.949814,0.3508799,-0.2147833,-27.84527,-3.663268,-19.85695,-153.727559423097,-169.547438673006,-145.409536485802,-161.88479970733,-165.527749403048,-176.149540505875,-6.18751618043874,10.1414495117093
2009-04-12 오후 7:48:54,0,0,0,0,0,0,0,0,0,0,0,0,0,0,0,0,0,0,0,1,1,1,1,1,1,1,1,1,1,0,0,1092,0,0,0,0,108.046,True,-144.209417607118,-167.209601523894,-156.811471795628,119.894135407169,False,False,False,False,0,0,0,0,0,0,0,0,2554,479,0,1,2197,0.1221241,643,1708,-1.768801,0.547467,-0.4504077,-27.7424,0.9748943,-19.7464,-143.390245699201,177.173563447378,-145.409536485802,-165.825682254644,-165.527749403048,166.715847148793,-13.6719384351957,16.696168614759
2009-04-12 오후 7:48:54,0,0,0,0,0,0,0,0,0,0,0,0,0,0,0,0,0,0,0,1,1,1,1,1,1,1,1,1,1,0,0,1093,0,0,0,0,130.3991,True,-144.209417607118,-167.209601523894,-156.811471795628,119.894135407169,False,False,False,False,0,0,0,0,0,0,0,0,2613,479,0,1,2197,0.1221241,981,1703,-1.352593,0.6177618,-0.4564185,-26.91939,7.048678,-19.3042,-133.591451410226,159.940996171436,-145.409536485802,176.729205000356,-165.527749403048,153.629764774561,-17.0634142260522,23.4005696059222
2009-04-12 오후 7:48:54,0,0,0,0,0,0,0,0,0,0,0,0,0,0,0,0,0,0,0,1,1,1,1,1,1,1,1,1,1,0,0,1094,0,0,0,0,182.7806,True,-144.209417607118,-167.209601523894,-156.811471795628,119.894135407169,False,False,False,False,0,0,0,0,0,0,0,0,2832,479,0,1,2197,0.1221241,1427,1799,-0.8033961,0.8786864,-0.3410106,-24.55325,13.34333,-18.30925,-124.293419270439,143.916375170967,-145.409536485802,165.324537614862,-165.527749403048,148.703941628175,-15.982690469154,45.1934287944393
2009-04-12 오후 7:48:54,0,0,0,0,0,0,0,0,0,0,0,0,0,0,0,0,0,0,0,1,1,1,1,1,1,1,1,1,1,0,0,1095,0,0,0,0,201.5753,True,-144.209417607118,-167.209601523894,-156.811471795628,119.894135407169,False,False,False,False,0,0,0,0,0,0,0,0,2834,479,0,1,2197,0.1221241,1811,1987,-0.3305449,0.8810693,-0.1150035,-20.74685,18.86495,-17.0932,-115.362181949461,132.179173195542,-145.409536485802,165.059335029769,-165.527749403048,155.530114646955,-6.96756006903416,68.3359606837075
2009-04-12 오후 7:48:54,0,0,0,0,0,0,0,0,0,0,0,0,0,0,0,0,0,0,0,1,1,1,1,1,1,1,1,1,1,0,0,1096,0,0,0,0,240.8324,True,-144.209417607118,-167.209601523894,-156.811471795628,119.894135407169,False,False,False,False,0,0,0,0,0,0,0,0,3043,479,0,1,2197,0.1221241,2355,2248,0.3393277,1.13008,0.1987617,-16.7347,22.84052,-15.87715,-106.645535511825,124.804358401491,-145.409536485802,141.905990951044,-165.527749403048,156.514536151651,9.56186527195141,70.8126760692134
2009-04-12 오후 7:48:54,0,0,0,0,0,0,0,0,0,0,0,0,0,0,0,0,0,0,0,1,1,1,1,1,1,1,1,1,1,0,0,1097,0,0,0,0,230.2868,True,-144.209417607118,-167.209601523894,-156.811471795628,119.894135407169,False,False,False,False,0,0,0,0,0,0,0,0,2898,480,1,2,3043,1.13008,2579,2298,0.6151575,0.9573212,0.2588699,-13.64843,25.38046,-14.77165,-98.0965428975571,120.199786372527,-145.409536485802,123.237308100215,-165.527749403048,125.143750501349,12.816219892578,55.1172838471176
2009-04-12 오후 7:48:54,0,0,0,0,0,0,0,0,0,0,0,0,0,0,0,0,0,0,0,1,1,1,1,1,1,1,1,1,1,0,0,1098,0,0,0,0,201.8533,True,-144.209417607118,-167.209601523894,-156.811471795628,119.894135407169,False,False,False,False,0,0,0,0,0,0,0,0,2881,480,0,2,3043,1.13008,2914,2335,1.027671,0.9370668,0.3033501,-12.9283,26.70565,-13.66615,-89.644409195909,117.100301168689,-145.409536485802,117.1405309829,-165.527749403048,113.328254067468,12.3045721293996,41.1707035053956
2009-04-12 오후 7:48:54,0,0,0,0,0,0,0,0,0,0,0,0,0,0,0,0,0,0,0,1,1,1,1,1,1,1,1,1,1,0,0,1099,0,0,0,0,165.7903,True,-144.209417607118,-167.209601523894,-156.811471795628,119.894135407169,False,False,False,False,0,0,0,0,0,0,0,0,2575,480,0,2,3043,1.13008,2942,2402,1.06215,0.5724872,0.3838952,-15.08869,26.59522,-13.00285,-81.2327921764173,116.054790452056,-145.409536485802,113.904394184337,-165.527749403048,104.807920926958,17.6490192775635,26.8802846106661
2009-04-12 오후 7:48:54,0,0,0,0,0,0,0,0,0,0,0,0,0,0,0,0,0,0,0,1,1,1,1,1,1,1,1,1,1,0,0,1100,0,0,0,0,283.6635,True,-144.209417607118,-167.209601523894,-156.811471795628,119.894135407169,False,False,False,False,0,0,0,0,0,0,0,0,2069,480,0,2,3043,1.13008,2629,2276,0.6767267,-0.03037982,0.2324223,-19.7181,24.60743,-13.00285,-72.7649968510023,117.852482581225,-145.409536485802,120.331895891453,-165.527749403048,112.466653024428,18.9373620022098,-2.43120092586757
2009-04-12 오후 7:48:54,0,0,0,0,0,0,0,0,0,0,0,0,0,0,0,0,0,0,0,1,1,1,1,1,1,1,1,1,1,0,0,1101,0,0,0,0,418.0173,True,-144.209417607118,-167.209601523894,-156.811471795628,119.894135407169,False,False,False,False,0,0,0,0,0,0,0,0,1797,480,0,2,3043,1.13008,2469,2333,0.4797054,-0.3544506,0.3009458,-25.47913,20.0797,-13.44505,-64.1111676631637,123.805634480674,-145.409536485802,133.548503180725,-165.527749403048,136.783786205642,26.7737609803705,-32.0431050759682
2009-04-12 오후 7:48:54,0,0,0,0,0,0,0,0,0,0,0,0,0,0,0,0,0,0,0,1,1,1,1,1,1,1,1,1,1,0,0,1102,0,0,0,0,557.4906,True,-144.209417607118,-167.209601523894,-156.811471795628,119.894135407169,False,False,False,False,0,0,0,0,0,0,0,0,1443,480,0,2,3043,1.13008,2024,2313,-0.06826024,-0.7762192,0.2769024,-30.41716,12.79116,-13.9978,-55.0387605773245,137.578984149571,-145.409536485802,154.206587910347,-165.527749403048,-178.986664483315,19.5632224811419,-69.8260825643617
2009-04-12 오후 7:48:54,0,0,0,0,0,0,0,0,0,0,0,0,0,0,0,0,0,0,0,1,1,1,1,1,1,1,1,1,1,0,0,1103,0,0,0,0,646.9218,False,-144.209417607118,-167.209601523894,-156.811471795628,119.894135407169,False,False,False,False,0,0,0,0,0,0,0,0,1298,480,0,2,3043,1.13008,1854,2288,-0.2775954,-0.9489775,0.2468483,-33.29768,3.625273,-14.32945,-45.0843745790563,165.802391309574,-145.409536485802,163.311598904189,-165.527749403048,-170.923735451142,14.0178047006132,-68.6222890439036
2009-04-12 오후 7:48:54,0,0,0,0,0,0,0,0,0,0,0,0,0,0,0,0,0,0,0,1,1,1,1,1,1,1,1,1,1,0,0,1104,0,0,0,0,669.7162,False,-144.209417607118,-167.209601523894,-156.811471795628,119.894135407169,False,False,False,False,0,0,0,0,0,0,0,0,1091,480,0,2,3043,1.13008,1606,2294,-0.5829785,-1.195605,0.2540613,-33.40055,-6.203214,-13.88725,-45.1960242663239,-155.930445694588,-145.409536485802,-178.726284011776,-165.527749403048,-154.149555830777,10.8132583807353,-61.9918282656004
2009-04-12 오후 7:48:54,0,0,0,0,0,0,0,0,0,0,0,0,0,0,0,0,0,0,0,NaN,NaN,NaN,NaN,NaN,NaN,NaN,NaN,NaN,NaN,1,0,0,1,0,0,0,632.0734,False,-165.452876869366,-169.174851853781,-168.195430047558,130.760911735146,False,False,False,False,-144.209417607118,-167.209601523894,-156.811471795628,119.894135407169,-144.209417607118,-167.209601523894,-156.811471795628,119.894135407169,1111,481,1,1,1091,-1.195605,1401,2266,-0.8354121,-1.171776,0.2204007,-30.82866,-14.92738,-13.22395,-44.5375564642942,-131.537272017345,-145.409536485802,-151.13827568988,-165.527749403048,-132.821224637902,8.70736506432685,-53.5971979265746
2009-04-12 오후 7:48:54,0,0,0,0,0,0,0,0,0,0,0,0,0,0,0,0,0,0,0,NaN,NaN,NaN,NaN,NaN,NaN,NaN,NaN,NaN,NaN,1,0,1,2,0,0,0,632.0734,True,-165.452876869366,-169.174851853781,-168.195430047558,130.760911735146,False,False,False,False,-144.209417607118,-167.209601523894,-156.811471795628,119.894135407169,-144.209417607118,-167.209601523894,-156.811471795628,119.894135407169,1239,481,0,1,1091,-1.195605,1558,2305,-0.6420849,-1.019272,0.2672851,-26.30214,-21.66375,-12.56065,-43.5296664296104,-120.105174592144,-145.409536485802,-136.269418319626,-165.527749403048,-114.653003407938,12.5099704318939,-55.6925087186377
2009-04-12 오후 7:48:54,0,0,0,0,0,0,0,0,0,0,0,0,0,0,0,0,0,0,0,NaN,NaN,NaN,NaN,NaN,NaN,NaN,NaN,NaN,NaN,1,0,2,3,0,0,0,632.0734,True,-165.452876869366,-169.174851853781,-168.195430047558,130.760911735146,False,False,False,False,-144.209417607118,-167.209601523894,-156.811471795628,119.894135407169,-144.209417607118,-167.209601523894,-156.811471795628,119.894135407169,1515,481,0,1,1091,-1.195605,2015,2565,-0.07934269,-0.6904358,0.5798482,-21.05548,-26.30192,-11.7868,-42.3196267011564,-114.138806276652,-145.409536485802,-96.5122805195727,-165.527749403048,-70.5222086143802,39.839533787106,-49.7135523645053
2009-04-12 오후 7:48:54,0,0,0,0,0,0,0,0,0,0,0,0,0,0,0,0,0,0,0,NaN,NaN,NaN,NaN,NaN,NaN,NaN,NaN,NaN,NaN,1,0,3,4,0,0,0,632.0734,True,-165.452876869366,-169.174851853781,-168.195430047558,130.760911735146,False,False,False,False,-144.209417607118,-167.209601523894,-156.811471795628,119.894135407169,-144.209417607118,-167.209601523894,-156.811471795628,119.894135407169,1360,482,1,2,1515,-0.6904358,1694,2187,-0.4746167,-0.8751085,0.1254296,-15.29444,-29.50446,-10.9024,-40.9968717759242,-110.280131886188,-145.409536485802,-122.309836712819,-165.527749403048,-113.696025603328,7.18103037446692,-60.7088113809594
2009-04-12 오후 7:48:54,0,0,0,0,0,0,0,0,0,0,0,0,0,0,0,0,0,0,0,NaN,NaN,NaN,NaN,NaN,NaN,NaN,NaN,NaN,NaN,1,0,4,5,0,0,0,632.0734,True,-165.452876869366,-169.174851853781,-168.195430047558,130.760911735146,False,False,False,False,-144.209417607118,-167.209601523894,-156.811471795628,119.894135407169,-144.209417607118,-167.209601523894,-156.811471795628,119.894135407169,1609,483,1,1,1360,-0.8751085,1893,2080,-0.2295715,-0.5784407,-0.00320213,-10.25354,-31.05051,-10.018,-39.6032502229586,-107.881547034598,-145.409536485802,-131.407894574086,-165.527749403048,-131.770304411447,-0.294805718853575,-68.3509597791249
2009-04-12 오후 7:48:54,0,0,0,0,0,0,0,0,0,0,0,0,0,0,0,0,0,0,0,NaN,NaN,NaN,NaN,NaN,NaN,NaN,NaN,NaN,NaN,1,0,5,6,0,0,0,632.0734,True,-165.452876869366,-169.174851853781,-168.195430047558,130.760911735146,False,False,False,False,-144.209417607118,-167.209601523894,-156.811471795628,119.894135407169,-144.209417607118,-167.209601523894,-156.811471795628,119.894135407169,1666,483,0,1,1360,-0.8751085,1854,2220,-0.2775954,-0.5105288,0.165101,-6.138511,-31.38181,-9.465248,-38.1753342901703,-106.784140540652,-145.409536485802,-102.861337504071,-165.527749403048,-91.4025613599728,15.860325922626,-57.6808109369743
2009-04-12 오후 7:48:54,0,0,0,0,0,0,0,0,0,0,0,0,0,0,0,0,0,0,0,NaN,NaN,NaN,NaN,NaN,NaN,NaN,NaN,NaN,NaN,1,0,6,7,0,0,0,632.0734,True,-165.452876869366,-169.174851853781,-168.195430047558,130.760911735146,False,False,False,False,-144.209417607118,-167.209601523894,-156.811471795628,119.894135407169,-144.209417607118,-167.209601523894,-156.811471795628,119.894135407169,1833,483,0,1,1360,-0.8751085,1793,2208,-0.3527098,-0.3115589,0.1506751,-3.772371,-31.27138,-9.354698,-36.7474900743683,-106.654325965287,-145.409536485802,-103.42077097823,-165.527749403048,-91.4425521175632,17.7535143416755,-39.0873899406096
2009-04-12 오후 7:48:54,0,0,0,0,0,0,0,0,0,0,0,0,0,0,0,0,0,0,0,NaN,NaN,NaN,NaN,NaN,NaN,NaN,NaN,NaN,NaN,1,0,7,8,0,0,0,632.0734,True,-165.452876869366,-169.174851853781,-168.195430047558,130.760911735146,False,False,False,False,-144.209417607118,-167.209601523894,-156.811471795628,119.894135407169,-144.209417607118,-167.209601523894,-156.811471795628,119.894135407169,1776,484,1,2,1833,-0.3115589,1646,2017,-0.5337231,-0.3794708,-0.07893856,-2.949366,-30.94008,-9.575799,-35.3328212934752,-107.197032306169,-145.409536485802,-112.022233105703,-165.527749403048,-117.494129876232,-6.87328809056235,-35.1201360329102
2009-04-12 오후 7:48:54,0,0,0,0,0,0,0,0,0,0,0,0,0,0,0,0,0,0,0,NaN,NaN,NaN,NaN,NaN,NaN,NaN,NaN,NaN,NaN,1,0,8,9,0,0,0,632.0734,True,-165.452876869366,-169.174851853781,-168.195430047558,130.760911735146,False,False,False,False,-144.209417607118,-167.209601523894,-156.811471795628,119.894135407169,-144.209417607118,-167.209601523894,-156.811471795628,119.894135407169,1469,484,0,2,1833,-0.3115589,1310,1680,-0.9474679,-0.7452419,-0.4840683,-4.389625,-30.05662,-11.1235,-34.0233374258004,-110.308750378811,-145.409536485802,-114.902346293779,-165.527749403048,-134.534618572335,-21.8789383550795,-35.0089200626549
2009-04-12 오후 7:48:54,0,0,0,0,0,0,0,0,0,0,0,0,0,0,0,0,0,0,0,NaN,NaN,NaN,NaN,NaN,NaN,NaN,NaN,NaN,NaN,1,0,9,10,0,0,0,632.0734,True,-165.452876869366,-169.174851853781,-168.195430047558,130.760911735146,False,False,False,False,-144.209417607118,-167.209601523894,-156.811471795628,119.894135407169,-144.209417607118,-167.209601523894,-156.811471795628,119.894135407169,1068,484,0,2,1833,-0.3115589,955,1851,-1.384609,-1.223008,-0.278498,-8.710402,-28.06883,-14.10835,-32.9168536104475,-116.685654044556,-145.409536485802,-122.921152303914,-165.527749403048,-133.718984702408,-8.57285729522815,-40.8907545418843
2009-04-12 오후 7:48:54,0,0,0,0,0,0,0,0,0,0,0,0,0,0,0,0,0,0,0,NaN,NaN,NaN,NaN,NaN,NaN,NaN,NaN,NaN,NaN,1,0,10,11,0,0,0,632.0734,True,-165.452876869366,-169.174851853781,-168.195430047558,130.760911735146,False,False,False,False,-144.209417607118,-167.209601523894,-156.811471795628,119.894135407169,-144.209417607118,-167.209601523894,-156.811471795628,119.894135407169,783,484,0,2,1833,-0.3115589,821,2145,-1.549614,-1.562567,0.07493863,-14.88294,-23.8724,-17.3143,-32.0999698159032,-125.952827389672,-145.409536485802,-136.565916831496,-165.527749403048,-133.137558019122,1.95032423211718,-45.205009380177
2009-04-12 오후 7:48:54,0,0,0,0,0,0,0,0,0,0,0,0,0,0,0,0,0,0,0,NaN,NaN,NaN,NaN,NaN,NaN,NaN,NaN,NaN,NaN,1,0,11,12,0,0,0,632.0734,True,-165.452876869366,-169.174851853781,-168.195430047558,130.760911735146,False,False,False,False,-144.209417607118,-167.209601523894,-156.811471795628,119.894135407169,-144.209417607118,-167.209601523894,-156.811471795628,119.894135407169,628,484,0,2,1833,-0.3115589,359,2363,-2.118514,-1.74724,0.3370107,-21.56986,-17.68819,-19.08311,-31.6415445942848,-137.172478610929,-145.409536485802,-149.559709689664,-165.527749403048,-134.529796458781,6.99660117961141,-39.1630411158567
2009-04-12 오후 7:48:54,0,0,0,0,0,0,0,0,0,0,0,0,0,0,0,0,0,0,0,NaN,NaN,NaN,NaN,NaN,NaN,NaN,NaN,NaN,NaN,1,0,0,13,0,0,0,632.0734,True,-165.452876869366,-169.174851853781,-168.195430047558,130.760911735146,False,False,False,False,-144.209417607118,-167.209601523894,-156.811471795628,119.894135407169,-144.209417607118,-167.209601523894,-156.811471795628,119.894135407169,1260,485,1,1,628,-1.74724,1015,2447,-1.310726,-0.9942521,0.4379926,-26.50789,-10.51008,-19.08311,-31.6043781199162,-151.156088823236,-145.409536485802,-170.143618564899,-165.527749403048,-133.77081217783,14.9081394957182,-35.7329645109059
2009-04-12 오후 7:48:54,0,0,0,0,0,0,0,0,0,0,0,0,0,0,0,0,0,0,0,NaN,NaN,NaN,NaN,NaN,NaN,NaN,NaN,NaN,NaN,1,0,1,14,0,0,0,632.0734,True,-165.452876869366,-169.174851853781,-168.195430047558,130.760911735146,False,False,False,False,-144.209417607118,-167.209601523894,-156.811471795628,119.894135407169,-144.209417607118,-167.209601523894,-156.811471795628,119.894135407169,1918,485,0,1,628,-1.74724,1217,2119,-1.061987,-0.2102868,0.04368233,-28.35965,-4.546727,-18.862,-32.0371423208228,-166.447284110629,-145.409536485802,-169.287345069412,-165.527749403048,-163.88097713378,2.31058725564455,-11.1911787239276
2009-04-12 오후 7:48:55,0,0,0,0,0,0,0,0,0,0,0,0,0,0,0,0,0,0,0,NaN,NaN,NaN,NaN,NaN,NaN,NaN,NaN,NaN,NaN,1,0,2,15,0,0,0,632.0734,True,-165.452876869366,-169.174851853781,-168.195430047558,130.760911735146,False,False,False,False,-144.209417607118,-167.209601523894,-156.811471795628,119.894135407169,-144.209417607118,-167.209601523894,-156.811471795628,119.894135407169,2401,485,0,1,628,-1.74724,1566,1828,-0.6322338,0.3651772,-0.3061478,-28.66828,-0.5711597,-18.862,-32.8232800188183,-178.265560431502,-145.409536485802,-144.213775267808,-165.527749403048,164.060829675004,-22.7488978421167,27.4679762849688
2009-04-12 오후 7:48:55,0,0,0,0,0,0,0,0,0,0,0,0,0,0,0,0,0,0,0,NaN,NaN,NaN,NaN,NaN,NaN,NaN,NaN,NaN,NaN,1,0,3,16,0,0,0,632.0734,True,-165.452876869366,-169.174851853781,-168.195430047558,130.760911735146,False,False,False,False,-144.209417607118,-167.209601523894,-156.811471795628,119.894135407169,-144.209417607118,-167.209601523894,-156.811471795628,119.894135407169,2915,485,0,1,628,-1.74724,1754,2017,-0.4007337,0.9775757,-0.07893856,-28.5654,1.527056,-18.862,-22.5340713172469,175.371459016006,-145.409536485802,-177.454871618534,-165.527749403048,174.148254097926,-4.272937316456,67.3246555544388
2009-04-12 오후 7:48:55,0,0,0,0,0,0,0,0,0,0,0,0,0,0,0,0,0,0,0,NaN,NaN,NaN,NaN,NaN,NaN,NaN,NaN,NaN,NaN,2,0,0,17,0,0,0,632.0734,True,-165.452876869366,-169.174851853781,-168.195430047558,130.760911735146,False,False,False,False,-144.209417607118,-167.209601523894,-156.811471795628,119.894135407169,-144.209417607118,-167.209601523894,-156.811471795628,119.894135407169,2708,486,1,2,2915,0.9775757,1391,1850,-0.8477259,0.7309483,-0.2797002,-27.7424,1.968786,-19.63585,-12.213051009616,174.27438037114,-145.409536485802,-168.32815428351,-165.527749403048,164.742373271145,-14.0297353335459,39.3115669944532
2009-04-12 오후 7:48:55,0,0,0,0,0,0,0,0,0,0,0,0,0,0,0,0,0,0,0,NaN,NaN,NaN,NaN,NaN,NaN,NaN,NaN,NaN,NaN,2,0,1,18,0,0,0,533.3433,True,-165.452876869366,-169.174851853781,-168.195430047558,130.760911735146,False,False,False,False,-144.209417607118,-167.209601523894,-156.811471795628,119.894135407169,-144.209417607118,-167.209601523894,-156.811471795628,119.894135407169,2349,486,0,2,2915,0.9775757,1185,1863,-1.101391,0.3032225,-0.2640721,-26.81651,1.858354,-20.52025,-1.72390132669714,174.825303429593,-145.409536485802,-169.75395627275,-165.527749403048,165.360956183516,-13.0159756050442,14.9878068221973
2009-04-12 오후 7:48:55,0,0,0,0,0,0,0,0,0,0,0,0,0,0,0,0,0,0,0,NaN,NaN,NaN,NaN,NaN,NaN,NaN,NaN,NaN,NaN,2,0,2,19,0,0,0,494.0093,True,-165.452876869366,-169.174851853781,-168.195430047558,130.760911735146,False,False,False,False,-144.209417607118,-167.209601523894,-156.811471795628,119.894135407169,-144.209417607118,-167.209601523894,-156.811471795628,119.894135407169,2364,487,1,1,2349,0.3032225,1244,2208,-1.028739,0.321094,0.1506751,-26.30214,1.968786,-20.96246,9.03178538952412,174.634536246074,-145.409536485802,168.471697539107,-165.527749403048,-176.735119944177,7.95913491622488,17.1621975444708
2009-04-12 오후 7:48:55,0,0,0,0,0,0,0,0,0,0,0,0,0,0,0,0,0,0,0,NaN,NaN,NaN,NaN,NaN,NaN,NaN,NaN,NaN,NaN,2,0,3,20,0,0,0,537.1638,True,-165.452876869366,-169.174851853781,-168.195430047558,130.760911735146,False,False,False,False,-144.209417607118,-167.209601523894,-156.811471795628,119.894135407169,-144.209417607118,-167.209601523894,-156.811471795628,119.894135407169,2407,487,0,1,2349,0.3032225,1297,2229,-0.9634759,0.3723258,0.1759205,-26.09639,1.968786,-21.07301,8.95331590747078,174.662526361293,-145.409536485802,167.350153156634,-165.527749403048,-174.410806569622,9.66556888789336,20.8145575333178
2009-04-12 오후 7:48:55,0,0,0,0,0,0,0,0,0,0,0,0,0,0,0,0,0,0,0,NaN,NaN,NaN,NaN,NaN,NaN,NaN,NaN,NaN,NaN,2,0,4,21,0,0,0,592.9398,True,-165.452876869366,-169.174851853781,-168.195430047558,130.760911735146,False,False,False,False,-144.209417607118,-167.209601523894,-156.811471795628,119.894135407169,-144.209417607118,-167.209601523894,-156.811471795628,119.894135407169,2486,487,0,1,2349,0.3032225,1373,2148,-0.8698908,0.4664493,0.07854512,-26.19926,1.527056,-21.07301,9.45063734886504,175.855309616809,-145.409536485802,172.333240609022,-165.527749403048,-179.04513090261,4.54972006040019,28.1041486420002
2009-04-12 오후 7:48:55,0,0,0,0,0,0,0,0,0,0,0,0,0,0,0,0,0,0,0,NaN,NaN,NaN,NaN,NaN,NaN,NaN,NaN,NaN,NaN,2,0,5,22,0,0,0,615.7664,True,-165.452876869366,-169.174851853781,-168.195430047558,130.760911735146,False,False,False,False,-144.209417607118,-167.209601523894,-156.811471795628,119.894135407169,-144.209417607118,-167.209601523894,-156.811471795628,119.894135407169,2533,487,0,1,2349,0.3032225,1417,1957,-0.8157099,0.5224468,-0.1510685,-26.61076,0.9748943,-20.74136,10.4941545040332,177.308937796728,-145.409536485802,-172.441417145097,-165.527749403048,170.199612455715,-8.86407863219092,32.2015757099963
2009-04-12 오후 7:48:55,0,0,0,0,0,0,0,0,0,0,0,0,0,0,0,0,0,0,0,NaN,NaN,NaN,NaN,NaN,NaN,NaN,NaN,NaN,NaN,2,0,6,23,0,0,0,587.9404,True,-165.452876869366,-169.174851853781,-168.195430047558,130.760911735146,False,False,False,False,-144.209417607118,-167.209601523894,-156.811471795628,119.894135407169,-144.209417607118,-167.209601523894,-156.811471795628,119.894135407169,2556,487,0,1,2349,0.3032225,1385,1927,-0.8551142,0.5498499,-0.1871335,-27.12514,0.643597,-20.4097,11.9321133762224,178.193843445217,-145.409536485802,-169.506744405931,-165.527749403048,169.671106078118,-10.4297253295925,32.1348994033186
2009-04-12 오후 7:48:55,0,0,0,0,0,0,0,0,0,0,0,0,0,0,0,0,0,0,0,NaN,NaN,NaN,NaN,NaN,NaN,NaN,NaN,NaN,NaN,2,0,7,24,0,0,0,455.3729,True,-165.452876869366,-169.174851853781,-168.195430047558,130.760911735146,False,False,False,False,-144.209417607118,-167.209601523894,-156.811471795628,119.894135407169,-144.209417607118,-167.209601523894,-156.811471795628,119.894135407169,2570,487,0,1,2349,0.3032225,1377,1919,-0.8649653,0.56653,-0.1967508,-27.33089,0.2018673,-20.1886,13.6390741262306,179.427116062132,-145.409536485802,-167.803267906173,-165.527749403048,170.28359646175,-10.7736885335525,32.5647505285442
One Step
2009-04-12 오후 7:48:55,-0.2861196,-1.369031,-0.2626765,-1.373722,-0.3512976,-1.353773,1.059365,-0.9131585,1.059365,-0.9131585,1.398611,0,0,0,0,0,0,0,0,NaN,NaN,NaN,NaN,NaN,NaN,NaN,NaN,NaN,NaN,0,1,8,17,606.4085,0.7224976,1,86.02579,True,-165.452876869366,-169.174851853781,-168.195430047558,130.760911735146,False,False,False,False,-144.209417607118,-167.209601523894,-156.811471795628,119.894135407169,-144.209417607118,-167.209601523894,-156.811471795628,119.894135407169,2561,488,1,2,2570,0.56653,1410,1949,-0.8243296,0.5558071,-0.1606858,-27.22802,-0.12943,-20.29915,4.26924687987008,-179.634685511009,-145.409536485802,-169.067850110244,-165.527749403048,172.156926105787,-9.18090378703113,33.4964873690769
2009-04-12 오후 7:48:55,-0.2861196,-1.369031,-0.2626765,-1.373722,-0.3512976,-1.353773,1.059365,-0.9131585,1.059365,-0.9131585,1.398611,0,0,0,0,0,0,0,0,NaN,NaN,NaN,NaN,NaN,NaN,NaN,NaN,NaN,NaN,0,1,9,0,606.4085,0.7224976,1,70.80917,True,-165.452876869366,-169.174851853781,-168.195430047558,130.760911735146,False,False,False,False,-144.209417607118,-167.209601523894,-156.811471795628,119.894135407169,-144.209417607118,-167.209601523894,-156.811471795628,119.894135407169,2497,488,0,2,2570,0.56653,1396,1994,-0.841569,0.4795551,-0.1065884,-27.02227,-0.3502949,-20.4097,-4.98440994776591,-179.016717315663,-145.409536485802,-172.116587008549,-165.527749403048,175.0403587658,-6.27968958328806,29.4802746654069
2009-04-12 오후 7:48:55,-0.2861196,-1.369031,-0.2626765,-1.373722,-0.3512976,-1.353773,1.059365,-0.9131585,1.059365,-0.9131585,1.398611,0,0,0,0,0,0,0,0,NaN,NaN,NaN,NaN,NaN,NaN,NaN,NaN,NaN,NaN,0,1,10,0,606.4085,0.7224976,1,53.25352,True,-165.452876869366,-169.174851853781,-168.195430047558,130.760911735146,False,False,False,False,-144.209417607118,-167.209601523894,-156.811471795628,119.894135407169,-144.209417607118,-167.209601523894,-156.811471795628,119.894135407169,2460,488,0,2,2570,0.56653,1341,2082,-0.9092951,0.435472,-0.0007977993,-27.02227,-0.7920246,-20.52025,-14.1670486028462,-177.789646510513,-145.409536485802,-177.959513315172,-165.527749403048,-178.052922982261,-0.0453390558447025,25.5902923953351
2009-04-12 오후 7:48:55,-0.2861196,-1.369031,-0.2626765,-1.373722,-0.3512976,-1.353773,1.059365,-0.9131585,1.059365,-0.9131585,1.398611,0,0,0,0,0,0,0,0,NaN,NaN,NaN,NaN,NaN,NaN,NaN,NaN,NaN,NaN,0,1,11,0,606.4085,0.7224976,1,45.79847,True,-165.452876869366,-169.174851853781,-168.195430047558,130.760911735146,False,False,False,False,-144.209417607118,-167.209601523894,-156.811471795628,119.894135407169,-144.209417607118,-167.209601523894,-156.811471795628,119.894135407169,2441,488,0,2,2570,0.56653,1310,2048,-0.9474679,0.4128346,-0.04167143,-27.02227,-1.233754,-20.63081,-23.3679930186758,-176.577697744186,-145.409536485802,-174.348966036876,-165.527749403048,-179.195053554892,-2.30894801024375,23.5236513223131
2009-04-12 오후 7:48:55,-0.2861196,-1.369031,-0.2626765,-1.373722,-0.3512976,-1.353773,1.059365,-0.9131585,1.059365,-0.9131585,1.398611,0,0,0,0,0,0,0,0,NaN,NaN,NaN,NaN,NaN,NaN,NaN,NaN,NaN,NaN,0,1,12,0,606.4085,0.7224976,1,49.96858,True,-165.452876869366,-169.174851853781,-168.195430047558,130.760911735146,False,False,False,False,-144.209417607118,-167.209601523894,-156.811471795628,119.894135407169,-144.209417607118,-167.209601523894,-156.811471795628,119.894135407169,2449,489,1,1,2441,0.4128346,1302,2034,-0.957319,0.4223661,-0.05850174,-27.12514,-1.565052,-20.52025,-32.7256253891601,-175.638574054066,-145.409536485802,-172.432838427499,-165.527749403048,-179.235761482345,-3.20008599290649,23.7675095662501
2009-04-12 오후 7:48:55,-0.2861196,-1.369031,-0.2626765,-1.373722,-0.3512976,-1.353773,1.059365,-0.9131585,1.059365,-0.9131585,1.398611,0,0,0,0,0,0,0,0,NaN,NaN,NaN,NaN,NaN,NaN,NaN,NaN,NaN,NaN,0,1,13,0,606.4085,0.7224976,1,49.62342,True,-165.452876869366,-169.174851853781,-168.195430047558,130.760911735146,False,False,False,False,-144.209417607118,-167.209601523894,-156.811471795628,119.894135407169,-144.209417607118,-167.209601523894,-156.811471795628,119.894135407169,2483,489,0,1,2441,0.4128346,1329,2008,-0.9240717,0.462875,-0.08975805,-27.22802,-2.006781,-20.4097,-42.4744841651135,-174.384455699804,-145.409536485802,-169.2020223463,-165.527749403048,-179.921075342908,-4.96351341088708,26.4990866304458
2009-04-12 오후 7:48:55,-0.2861196,-1.369031,-0.2626765,-1.373722,-0.3512976,-1.353773,1.059365,-0.9131585,1.059365,-0.9131585,1.398611,0,0,0,0,0,0,0,0,NaN,NaN,NaN,NaN,NaN,NaN,NaN,NaN,NaN,NaN,0,1,14,0,606.4085,0.7224976,1,45.46908,True,-165.452876869366,-169.174851853781,-168.195430047558,130.760911735146,False,False,False,False,-144.209417607118,-167.209601523894,-156.811471795628,119.894135407169,-144.209417607118,-167.209601523894,-156.811471795628,119.894135407169,2481,490,1,2,2483,0.462875,1374,1981,-0.8686594,0.4604921,-0.1222165,-27.33089,-2.338078,-20.29915,-53.0754807570123,-173.429567933079,-145.409536485802,-165.582404576787,-165.527749403048,178.881629834258,-7.08601347848876,27.69713083917
2009-04-12 오후 7:48:55,-0.2861196,-1.369031,-0.2626765,-1.373722,-0.3512976,-1.353773,1.059365,-0.9131585,1.059365,-0.9131585,1.398611,0,0,0,0,0,0,0,0,NaN,NaN,NaN,NaN,NaN,NaN,NaN,NaN,NaN,NaN,0,1,15,0,606.4085,0.7224976,1,35.46037,True,-165.452876869366,-169.174851853781,-168.195430047558,130.760911735146,False,False,False,False,-144.209417607118,-167.209601523894,-156.811471795628,119.894135407169,-144.209417607118,-167.209601523894,-156.811471795628,119.894135407169,2462,490,0,2,2483,0.462875,1348,1967,-0.9006754,0.4378548,-0.1390468,-27.33089,-2.669376,-20.1886,-53.592273360183,-172.467931939455,-145.409536485802,-163.355558001687,-165.527749403048,179.050294525623,-7.90460439343879,25.6619069287827
2009-04-12 오후 7:48:55,-0.2861196,-1.369031,-0.2626765,-1.373722,-0.3512976,-1.353773,1.059365,-0.9131585,1.059365,-0.9131585,1.398611,0,0,0,0,0,0,0,0,NaN,NaN,NaN,NaN,NaN,NaN,NaN,NaN,NaN,NaN,0,1,16,0,606.4085,0.7224976,1,18.68154,True,-165.452876869366,-169.174851853781,-168.195430047558,130.760911735146,False,False,False,False,-144.209417607118,-167.209601523894,-156.811471795628,119.894135407169,-144.209417607118,-167.209601523894,-156.811471795628,119.894135407169,2447,490,0,2,2483,0.462875,1357,1976,-0.8895929,0.4199833,-0.1282273,-27.33089,-3.111106,-20.1886,-54.832966977632,-171.23950875685,-145.409536485802,-162.753681732026,-165.527749403048,-179.46054300793,-7.42638442983212,25.0456462807291
2009-04-12 오후 7:48:55,-0.2861196,-1.369031,-0.2626765,-1.373722,-0.3512976,-1.353773,1.059365,-0.9131585,1.059365,-0.9131585,1.398611,0,0,0,0,0,0,0,0,NaN,NaN,NaN,NaN,NaN,NaN,NaN,NaN,NaN,NaN,0,1,17,0,606.4085,0.7224976,1,15.6205,True,-165.452876869366,-169.174851853781,-168.195430047558,130.760911735146,False,False,False,False,-144.209417607118,-167.209601523894,-156.811471795628,119.894135407169,-144.209417607118,-167.209601523894,-156.811471795628,119.894135407169,2441,490,0,2,2483,0.462875,1340,1965,-0.9105265,0.4128346,-0.1414512,-27.33089,-3.33197,-20.29915,-56.4133771289246,-170.678408716533,-145.409536485802,-161.227653546905,-165.527749403048,-179.498464218202,-8.05316442298115,24.1337169887895
2009-04-12 오후 7:48:55,-0.2861196,-1.369031,-0.2626765,-1.373722,-0.3512976,-1.353773,1.059365,-0.9131585,1.059365,-0.9131585,1.398611,0,0,0,0,0,0,0,0,NaN,NaN,NaN,NaN,NaN,NaN,NaN,NaN,NaN,NaN,0,1,18,0,606.4085,0.7224976,1,20.82667,True,-165.452876869366,-169.174851853781,-168.195430047558,130.760911735146,False,False,False,False,-144.209417607118,-167.209601523894,-156.811471795628,119.894135407169,-144.209417607118,-167.209601523894,-156.811471795628,119.894135407169,2416,490,0,2,2483,0.462875,1291,1988,-0.9708642,0.3830487,-0.1138014,-27.22802,-3.552835,-20.29915,-58.1613010847063,-170.07243433337,-145.409536485802,-162.976646427292,-165.527749403048,-177.129235519665,-6.22276337165059,21.3982876979019
2009-04-12 오후 7:48:55,-0.2861196,-1.369031,-0.2626765,-1.373722,-0.3512976,-1.353773,1.059365,-0.9131585,1.059365,-0.9131585,1.398611,0,0,0,0,0,0,0,0,NaN,NaN,NaN,NaN,NaN,NaN,NaN,NaN,NaN,NaN,0,1,19,0,606.4085,0.7224976,1,23.13007,True,-165.452876869366,-169.174851853781,-168.195430047558,130.760911735146,False,False,False,False,-144.209417607118,-167.209601523894,-156.811471795628,119.894135407169,-144.209417607118,-167.209601523894,-156.811471795628,119.894135407169,2421,491,1,1,2416,0.3830487,1312,2016,-0.9450052,0.3890059,-0.08014072,-27.22802,-3.552835,-20.4097,-60.03145469078,-170.125136073005,-145.409536485802,-165.415310828931,-165.527749403048,-175.546721670108,-4.48397095190236,22.3020617439726
2009-04-12 오후 7:48:55,-0.2861196,-1.369031,-0.2626765,-1.373722,-0.3512976,-1.353773,1.059365,-0.9131585,1.059365,-0.9131585,1.398611,0,0,0,0,0,0,0,0,NaN,NaN,NaN,NaN,NaN,NaN,NaN,NaN,NaN,NaN,0,1,20,0,606.4085,0.7224976,1,25.18649,True,-165.452876869366,-169.174851853781,-168.195430047558,130.760911735146,False,False,False,False,-144.209417607118,-167.209601523894,-156.811471795628,119.894135407169,-144.209417607118,-167.209601523894,-156.811471795628,119.894135407169,2420,492,1,2,2421,0.3890059,1327,2006,-0.9265344,0.3878145,-0.09216238,-27.02227,-3.663268,-20.4097,-61.9671712826967,-169.824525787255,-145.409536485802,-164.145701605631,-165.527749403048,-176.041159064125,-5.24258085310863,22.6121728228587
2009-04-12 오후 7:48:55,-0.2861196,-1.369031,-0.2626765,-1.373722,-0.3512976,-1.353773,1.059365,-0.9131585,1.059365,-0.9131585,1.398611,0,0,0,0,0,0,0,0,NaN,NaN,NaN,NaN,NaN,NaN,NaN,NaN,NaN,NaN,0,1,21,0,606.4085,0.7224976,1,23.57402,True,-165.452876869366,-169.174851853781,-168.195430047558,130.760911735146,False,False,False,False,-144.209417607118,-167.209601523894,-156.811471795628,119.894135407169,-144.209417607118,-167.209601523894,-156.811471795628,119.894135407169,2409,492,0,2,2421,0.3890059,1297,2028,-0.9634759,0.3747087,-0.06571474,-27.02227,-3.663268,-20.52025,-63.9388624809717,-169.878211074131,-145.409536485802,-166.184130582286,-165.527749403048,-174.414016758531,-3.6372661245549,21.2068460332029
2009-04-12 오후 7:48:55,-0.2861196,-1.369031,-0.2626765,-1.373722,-0.3512976,-1.353773,1.059365,-0.9131585,1.059365,-0.9131585,1.398611,0,0,0,0,0,0,0,0,NaN,NaN,NaN,NaN,NaN,NaN,NaN,NaN,NaN,NaN,0,1,22,0,606.4085,0.7224976,1,18.51984,True,-165.452876869366,-169.174851853781,-168.195430047558,130.760911735146,False,False,False,False,-144.209417607118,-167.209601523894,-156.811471795628,119.894135407169,-144.209417607118,-167.209601523894,-156.811471795628,119.894135407169,2407,492,0,2,2421,0.3890059,1318,2014,-0.9376169,0.3723258,-0.08254506,-27.02227,-3.7737,-20.52025,-65.9052807732076,-169.57966350551,-145.409536485802,-164.574623825129,-165.527749403048,-175.207384211763,-4.67763541628937,21.5821683431897
2009-04-12 오후 7:48:55,-0.2861196,-1.369031,-0.2626765,-1.373722,-0.3512976,-1.353773,1.059365,-0.9131585,1.059365,-0.9131585,1.398611,0,0,0,0,0,0,0,0,NaN,NaN,NaN,NaN,NaN,NaN,NaN,NaN,NaN,NaN,0,1,23,0,606.4085,0.7224976,1,13.32702,True,-165.452876869366,-169.174851853781,-168.195430047558,130.760911735146,False,False,False,False,-144.209417607118,-167.209601523894,-156.811471795628,119.894135407169,-144.209417607118,-167.209601523894,-156.811471795628,119.894135407169,2420,493,1,1,2407,0.3723258,1350,1979,-0.8982126,0.3878145,-0.1246208,-27.02227,-3.884133,-20.52025,-67.8454233277064,-169.281689672779,-145.409536485802,-160.877961521779,-165.527749403048,-177.515291471932,-7.25909858290652,23.154742559957
2009-04-12 오후 7:48:55,-0.2861196,-1.369031,-0.2626765,-1.373722,-0.3512976,-1.353773,1.059365,-0.9131585,1.059365,-0.9131585,1.398611,0,0,0,0,0,0,0,0,NaN,NaN,NaN,NaN,NaN,NaN,NaN,NaN,NaN,NaN,0,1,24,0,606.4085,0.7224976,1,9.769212,True,-165.452876869366,-169.174851853781,-168.195430047558,130.760911735146,False,False,False,False,-144.209417607118,-167.209601523894,-156.811471795628,119.894135407169,-144.209417607118,-167.209601523894,-156.811471795628,119.894135407169,2424,493,0,1,2407,0.3723258,1343,1993,-0.9068323,0.3925802,-0.1077905,-27.12514,-3.994565,-20.4097,-69.6772185914013,-168.926110024588,-145.409536485802,-161.98034039344,-165.527749403048,-176.237786549952,-6.22531615485288,23.2622668129659
2009-04-12 오후 7:48:55,-0.2861196,-1.369031,-0.2626765,-1.373722,-0.3512976,-1.353773,1.059365,-0.9131585,1.059365,-0.9131585,1.398611,0,0,0,0,0,0,0,0,NaN,NaN,NaN,NaN,NaN,NaN,NaN,NaN,NaN,NaN,0,1,25,0,606.4085,0.7224976,1,5.562149,True,-165.452876869366,-169.174851853781,-168.195430047558,130.760911735146,False,False,False,False,-144.209417607118,-167.209601523894,-156.811471795628,119.894135407169,-144.209417607118,-167.209601523894,-156.811471795628,119.894135407169,2417,494,1,2,2424,0.3925802,1340,1994,-0.9105265,0.3842402,-0.1065884,-27.12514,-3.994565,-20.29915,-71.307892104796,-168.867302095834,-145.409536485802,-161.973400921243,-165.527749403048,-176.084681029517,-6.15568749890648,22.7403003414989
2009-04-12 오후 7:48:55,-0.2861196,-1.369031,-0.2626765,-1.373722,-0.3512976,-1.353773,1.059365,-0.9131585,1.059365,-0.9131585,1.398611,0,0,0,0,0,0,0,0,NaN,NaN,NaN,NaN,NaN,NaN,NaN,NaN,NaN,NaN,0,1,26,0,606.4085,0.7224976,1,5.68853,True,-165.452876869366,-169.174851853781,-168.195430047558,130.760911735146,False,False,False,False,-144.209417607118,-167.209601523894,-156.811471795628,119.894135407169,-144.209417607118,-167.209601523894,-156.811471795628,119.894135407169,2413,494,0,2,2424,0.3925802,1343,1983,-0.9068323,0.3794744,-0.1198122,-27.12514,-4.21543,-20.29915,-72.6302508790563,-168.268403788651,-145.409536485802,-160.25120970316,-165.527749403048,-176.298302025998,-6.94897298986844,22.5314263264908
2009-04-12 오후 7:48:55,-0.2861196,-1.369031,-0.2626765,-1.373722,-0.3512976,-1.353773,1.059365,-0.9131585,1.059365,-0.9131585,1.398611,0,0,0,0,0,0,0,0,NaN,NaN,NaN,NaN,NaN,NaN,NaN,NaN,NaN,NaN,0,1,27,0,606.4085,0.7224976,1,5.487201,True,-165.452876869366,-169.174851853781,-168.195430047558,130.760911735146,False,False,False,False,-144.209417607118,-167.209601523894,-156.811471795628,119.894135407169,-144.209417607118,-167.209601523894,-156.811471795628,119.894135407169,2413,495,1,0,2413,0.3794744,1322,1989,-0.9326913,0.3794744,-0.1125992,-27.12514,-4.325862,-20.29915,-73.5926723444353,-167.969910861543,-145.409536485802,-160.706277886801,-165.527749403048,-175.456153361714,-6.3805317768546,21.9950993822939
2009-04-12 오후 7:48:56,-0.2861196,-1.369031,-0.2626765,-1.373722,-0.3512976,-1.353773,1.059365,-0.9131585,1.059365,-0.9131585,1.398611,0,0,0,0,0,0,0,0,NaN,NaN,NaN,NaN,NaN,NaN,NaN,NaN,NaN,NaN,0,1,28,0,606.4085,0.7224976,1,9.136978,True,-165.452876869366,-169.174851853781,-168.195430047558,130.760911735146,False,False,False,False,-144.209417607118,-167.209601523894,-156.811471795628,119.894135407169,-144.209417607118,-167.209601523894,-156.811471795628,119.894135407169,2392,496,1,2,2413,0.3794744,1305,1988,-0.9536248,0.3544542,-0.1138014,-27.02227,-4.436295,-20.4097,-74.1108173250616,-167.736823825927,-145.409536485802,-160.323855595172,-165.527749403048,-175.13499786694,-6.38249246803322,20.2577331914217
2009-04-12 오후 7:48:56,-0.2861196,-1.369031,-0.2626765,-1.373722,-0.3512976,-1.353773,1.059365,-0.9131585,1.059365,-0.9131585,1.398611,0,0,0,0,0,0,0,0,NaN,NaN,NaN,NaN,NaN,NaN,NaN,NaN,NaN,NaN,0,1,29,0,606.4085,0.7224976,1,10.38554,True,-165.452876869366,-169.174851853781,-168.195430047558,130.760911735146,False,False,False,False,-144.209417607118,-167.209601523894,-156.811471795628,119.894135407169,-144.209417607118,-167.209601523894,-156.811471795628,119.894135407169,2397,497,1,1,2392,0.3544542,1306,2000,-0.9523935,0.3604114,-0.09937537,-27.02227,-4.436295,-20.4097,-74.1511154411647,-167.736823825927,-145.409536485802,-161.474305338212,-165.527749403048,-174.372052076271,-5.57377629907573,20.6255166801121
2009-04-12 오후 7:48:56,-0.2861196,-1.369031,-0.2626765,-1.373722,-0.3512976,-1.353773,1.059365,-0.9131585,1.059365,-0.9131585,1.398611,0,0,0,0,0,0,0,0,NaN,NaN,NaN,NaN,NaN,NaN,NaN,NaN,NaN,NaN,0,1,30,0,606.4085,0.7224976,1,11.42366,True,-165.452876869366,-169.174851853781,-168.195430047558,130.760911735146,False,False,False,False,-144.209417607118,-167.209601523894,-156.811471795628,119.894135407169,-144.209417607118,-167.209601523894,-156.811471795628,119.894135407169,2396,498,1,2,2397,0.3604114,1313,1993,-0.9437738,0.35922,-0.1077905,-27.02227,-4.436295,-20.52025,-73.8240928138936,-167.80090466072,-145.409536485802,-160.829822348508,-165.527749403048,-174.942058683265,-6.09277974910337,20.7147326110508
2009-04-12 오후 7:48:56,-0.2861196,-1.369031,-0.2626765,-1.373722,-0.3512976,-1.353773,1.059365,-0.9131585,1.059365,-0.9131585,1.398611,0,0,0,0,0,0,0,0,NaN,NaN,NaN,NaN,NaN,NaN,NaN,NaN,NaN,NaN,0,1,31,0,606.4085,0.7224976,1,12.59898,True,-165.452876869366,-169.174851853781,-168.195430047558,130.760911735146,False,False,False,False,-144.209417607118,-167.209601523894,-156.811471795628,119.894135407169,-144.209417607118,-167.209601523894,-156.811471795628,119.894135407169,2387,498,0,2,2397,0.3604114,1339,1992,-0.9117578,0.3484971,-0.1089927,-27.02227,-4.546727,-20.52025,-84.5390340366212,-167.506660111276,-145.409536485802,-160.152609092302,-165.527749403048,-174.951948797183,-6.37139682572653,20.7829235121769
2009-04-12 오후 7:48:56,-0.2861196,-1.369031,-0.2626765,-1.373722,-0.3512976,-1.353773,1.059365,-0.9131585,1.059365,-0.9131585,1.398611,0,0,0,0,0,0,0,0,NaN,NaN,NaN,NaN,NaN,NaN,NaN,NaN,NaN,NaN,0,1,32,0,606.4085,0.7224976,1,12.47998,True,-165.452876869366,-169.174851853781,-168.195430047558,130.760911735146,False,False,False,False,-144.209417607118,-167.209601523894,-156.811471795628,119.894135407169,-144.209417607118,-167.209601523894,-156.811471795628,119.894135407169,2381,498,0,2,2397,0.3604114,1341,2006,-0.9092951,0.3413484,-0.09216238,-27.02227,-4.546727,-20.52025,-95.2196877097153,-167.506660111276,-145.409536485802,-161.443036732192,-165.527749403048,-174.003331144117,-5.42056576448223,20.479929490406
2009-04-12 오후 7:48:56,-0.2861196,-1.369031,-0.2626765,-1.373722,-0.3512976,-1.353773,1.059365,-0.9131585,1.059365,-0.9131585,1.398611,0,0,0,0,0,0,0,0,NaN,NaN,NaN,NaN,NaN,NaN,NaN,NaN,NaN,NaN,0,1,33,0,606.4085,0.7224976,1,11.40655,True,-165.452876869366,-169.174851853781,-168.195430047558,130.760911735146,False,False,False,False,-144.209417607118,-167.209601523894,-156.811471795628,119.894135407169,-144.209417607118,-167.209601523894,-156.811471795628,119.894135407169,2384,499,1,1,2381,0.3413484,1350,2000,-0.8982126,0.3449228,-0.09937537,-26.91939,-4.546727,-20.52025,-105.917560289707,-167.506660111276,-145.409536485802,-160.822910197068,-165.527749403048,-174.498437896673,-5.89678917841715,20.8909190482386
2009-04-12 오후 7:48:56,-0.2861196,-1.369031,-0.2626765,-1.373722,-0.3512976,-1.353773,1.059365,-0.9131585,1.059365,-0.9131585,1.398611,0,0,0,0,0,0,0,0,NaN,NaN,NaN,NaN,NaN,NaN,NaN,NaN,NaN,NaN,0,1,34,0,606.4085,0.7224976,1,10.05532,True,-165.452876869366,-169.174851853781,-168.195430047558,130.760911735146,False,False,False,False,-144.209417607118,-167.209601523894,-156.811471795628,119.894135407169,-144.209417607118,-167.209601523894,-156.811471795628,119.894135407169,2381,500,1,2,2384,0.3449228,1335,1989,-0.9166834,0.3413484,-0.1125992,-26.91939,-4.657159,-20.52025,-116.600304000687,-167.21308492037,-145.409536485802,-159.541689652179,-165.527749403048,-174.84318486484,-6.56649861804701,20.2840874763342
2009-04-12 오후 7:48:56,-0.2861196,-1.369031,-0.2626765,-1.373722,-0.3512976,-1.353773,1.059365,-0.9131585,1.059365,-0.9131585,1.398611,0,0,0,0,0,0,0,0,NaN,NaN,NaN,NaN,NaN,NaN,NaN,NaN,NaN,NaN,0,1,35,0,606.4085,0.7224976,1,5.87234,True,-165.452876869366,-169.174851853781,-168.195430047558,130.760911735146,False,False,False,False,-144.209417607118,-167.209601523894,-156.811471795628,119.894135407169,-144.209417607118,-167.209601523894,-156.811471795628,119.894135407169,2387,501,1,1,2381,0.3413484,1323,1990,-0.93146,0.3484971,-0.111397,-26.81651,-4.878025,-20.63081,-127.26780272944,-166.697077788954,-145.409536485802,-159.281131595721,-165.527749403048,-174.214807461199,-6.39111600874718,20.3796998794306
2009-04-12 오후 7:48:56,-0.2861196,-1.369031,-0.2626765,-1.373722,-0.3512976,-1.353773,1.059365,-0.9131585,1.059365,-0.9131585,1.398611,0,0,0,0,0,0,0,0,NaN,NaN,NaN,NaN,NaN,NaN,NaN,NaN,NaN,NaN,0,1,36,0,606.4085,0.7224976,1,5.830952,True,-165.452876869366,-169.174851853781,-168.195430047558,130.760911735146,False,False,False,False,-144.209417607118,-167.209601523894,-156.811471795628,119.894135407169,-144.209417607118,-167.209601523894,-156.811471795628,119.894135407169,2391,501,0,1,2381,0.3413484,1307,1973,-0.9511621,0.3532628,-0.1318338,-26.71364,-4.988457,-20.74136,-137.965682139621,-166.476763207086,-145.409536485802,-157.595276984022,-165.527749403048,-174.975895440413,-7.40302603664432,20.1977812059819
2009-04-12 오후 7:48:56,-0.2861196,-1.369031,-0.2626765,-1.373722,-0.3512976,-1.353773,1.059365,-0.9131585,1.059365,-0.9131585,1.398611,0,0,0,0,0,0,0,0,NaN,NaN,NaN,NaN,NaN,NaN,NaN,NaN,NaN,NaN,0,1,37,0,606.4085,0.7224976,1,5.278198,True,-165.452876869366,-169.174851853781,-168.195430047558,130.760911735146,False,False,False,False,-144.209417607118,-167.209601523894,-156.811471795628,119.894135407169,-144.209417607118,-167.209601523894,-156.811471795628,119.894135407169,2394,501,0,1,2381,0.3413484,1308,1955,-0.9499307,0.3568371,-0.1534728,-26.61076,-5.209321,-20.85191,-148.693259212313,-165.973214340716,-145.409536485802,-155.330113047679,-165.527749403048,-175.659979866925,-8.6004162547555,20.346631518564
2009-04-12 오후 7:48:56,-0.2861196,-1.369031,-0.2626765,-1.373722,-0.3512976,-1.353773,1.059365,-0.9131585,1.059365,-0.9131585,1.398611,0,0,0,0,0,0,0,0,NaN,NaN,NaN,NaN,NaN,NaN,NaN,NaN,NaN,NaN,0,1,38,0,606.4085,0.7224976,1,4.608077,True,-165.452876869366,-169.174851853781,-168.195430047558,130.760911735146,False,False,False,False,-144.209417607118,-167.209601523894,-156.811471795628,119.894135407169,-144.209417607118,-167.209601523894,-156.811471795628,119.894135407169,2392,502,1,2,2394,0.3568371,1294,1969,-0.9671701,0.3544542,-0.1366425,-26.50789,-5.098889,-20.85191,-159.457418778199,-166.259180700886,-145.409536485802,-157.130386988354,-165.527749403048,-174.908481473305,-7.55633390143349,19.9449361406445
2009-04-12 오후 7:48:56,-0.2861196,-1.369031,-0.2626765,-1.373722,-0.3512976,-1.353773,1.059365,-0.9131585,1.059365,-0.9131585,1.398611,0,0,0,0,0,0,0,0,NaN,NaN,NaN,NaN,NaN,NaN,NaN,NaN,NaN,NaN,0,1,39,0,606.4085,0.7224976,1,4.781148,True,-165.452876869366,-169.174851853781,-168.195430047558,130.760911735146,False,False,False,False,-144.209417607118,-167.209601523894,-156.811471795628,119.894135407169,-144.209417607118,-167.209601523894,-156.811471795628,119.894135407169,2391,502,0,2,2394,0.3568371,1300,1971,-0.9597818,0.3532628,-0.1342382,-26.40501,-5.430187,-20.96246,-170.235675854533,-165.477137701298,-145.409536485802,-156.467066336919,-165.527749403048,-174.134129266723,-7.4776014570971,20.0276958352702
2009-04-12 오후 7:48:56,-0.2861196,-1.369031,-0.2626765,-1.373722,-0.3512976,-1.353773,1.059365,-0.9131585,1.059365,-0.9131585,1.398611,0,0,0,0,0,0,0,0,NaN,NaN,NaN,NaN,NaN,NaN,NaN,NaN,NaN,NaN,0,1,40,0,606.4085,0.7224976,1,4.240799,True,-165.452876869366,-169.174851853781,-168.195430047558,130.760911735146,False,False,False,False,-144.209417607118,-167.209601523894,-156.811471795628,119.894135407169,-144.209417607118,-167.209601523894,-156.811471795628,119.894135407169,2385,502,0,2,2394,0.3568371,1293,1994,-0.9684015,0.3461142,-0.1065884,-26.40501,-5.430187,-20.96246,-169.793257181234,-165.477137701298,-145.409536485802,-158.658327626443,-165.527749403048,-172.58112183438,-5.91731261621257,19.5582074147438
2009-04-12 오후 7:48:56,-0.2861196,-1.369031,-0.2626765,-1.373722,-0.3512976,-1.353773,1.059365,-0.9131585,1.059365,-0.9131585,1.398611,0,0,0,0,0,0,0,0,NaN,NaN,NaN,NaN,NaN,NaN,NaN,NaN,NaN,NaN,0,1,41,0,606.4085,0.7224976,1,5.764926,True,-165.452876869366,-169.174851853781,-168.195430047558,130.760911735146,False,False,False,False,-144.209417607118,-167.209601523894,-156.811471795628,119.894135407169,-144.209417607118,-167.209601523894,-156.811471795628,119.894135407169,2376,502,0,2,2394,0.3568371,1295,1990,-0.9659387,0.3353913,-0.111397,-26.40501,-5.319754,-20.96246,-169.379006208073,-165.760358325422,-145.409536485802,-158.47327048107,-165.527749403048,-173.10031183395,-6.21755492552163,19.0309390089336
2009-04-12 오후 7:48:56,-0.2861196,-1.369031,-0.2626765,-1.373722,-0.3512976,-1.353773,1.059365,-0.9131585,1.059365,-0.9131585,1.398611,0,0,0,0,0,0,0,0,NaN,NaN,NaN,NaN,NaN,NaN,NaN,NaN,NaN,NaN,0,1,42,0,606.4085,0.7224976,1,7.712611,True,-165.452876869366,-169.174851853781,-168.195430047558,130.760911735146,False,False,False,False,-144.209417607118,-167.209601523894,-156.811471795628,119.894135407169,-144.209417607118,-167.209601523894,-156.811471795628,119.894135407169,2371,502,0,2,2394,0.3568371,1315,1963,-0.941311,0.3294341,-0.1438555,-26.40501,-5.430187,-20.96246,-168.994247991748,-165.477137701298,-145.409536485802,-155.302382479649,-165.527749403048,-174.759870217344,-8.2080705520361,19.0834204749687
2009-04-12 오후 7:48:56,-0.2861196,-1.369031,-0.2626765,-1.373722,-0.3512976,-1.353773,1.059365,-0.9131585,1.059365,-0.9131585,1.398611,0,0,0,0,0,0,0,0,NaN,NaN,NaN,NaN,NaN,NaN,NaN,NaN,NaN,NaN,0,1,43,0,606.4085,0.7224976,1,8.014635,True,-165.452876869366,-169.174851853781,-168.195430047558,130.760911735146,False,False,False,False,-144.209417607118,-167.209601523894,-156.811471795628,119.894135407169,-144.209417607118,-167.209601523894,-156.811471795628,119.894135407169,2379,503,1,1,2371,0.3294341,1319,1982,-0.9363855,0.3389656,-0.1210143,-26.50789,-5.319754,-20.85191,-168.653940646541,-165.68795832022,-145.409536485802,-157.449698332052,-165.527749403048,-173.77733384486,-6.92854090585317,19.7485425887972
2009-04-12 오후 7:48:56,-0.2861196,-1.369031,-0.2626765,-1.373722,-0.3512976,-1.353773,1.059365,-0.9131585,1.059365,-0.9131585,1.398611,0,0,0,0,0,0,0,0,NaN,NaN,NaN,NaN,NaN,NaN,NaN,NaN,NaN,NaN,0,1,44,0,606.4085,0.7224976,1,8.124039,True,-165.452876869366,-169.174851853781,-168.195430047558,130.760911735146,False,False,False,False,-144.209417607118,-167.209601523894,-156.811471795628,119.894135407169,-144.209417607118,-167.209601523894,-156.811471795628,119.894135407169,2376,504,1,2,2379,0.3389656,1327,1973,-0.9265344,0.3353913,-0.1318338,-26.50789,-5.209321,-20.85191,-168.351909681443,-165.973214340716,-145.409536485802,-156.728293751916,-165.527749403048,-174.696035269361,-7.62042071264207,19.7164150864888
2009-04-12 오후 7:48:56,-0.2861196,-1.369031,-0.2626765,-1.373722,-0.3512976,-1.353773,1.059365,-0.9131585,1.059365,-0.9131585,1.398611,0,0,0,0,0,0,0,0,NaN,NaN,NaN,NaN,NaN,NaN,NaN,NaN,NaN,NaN,0,1,45,0,606.4085,0.7224976,1,7.77717,True,-165.452876869366,-169.174851853781,-168.195430047558,130.760911735146,False,False,False,False,-144.209417607118,-167.209601523894,-156.811471795628,119.894135407169,-144.209417607118,-167.209601523894,-156.811471795628,119.894135407169,2371,504,0,2,2379,0.3389656,1331,1962,-0.9216089,0.3294341,-0.1450577,-26.50789,-5.319754,-20.85191,-168.080136454369,-165.68795832022,-145.409536485802,-155.214942397894,-165.527749403048,-175.18338292702,-8.43054005858717,19.4485470200719
2009-04-12 오후 7:48:56,-0.2861196,-1.369031,-0.2626765,-1.373722,-0.3512976,-1.353773,1.059365,-0.9131585,1.059365,-0.9131585,1.398611,0,0,0,0,0,0,0,0,NaN,NaN,NaN,NaN,NaN,NaN,NaN,NaN,NaN,NaN,0,1,46,0,606.4085,0.7224976,1,6.628537,True,-165.452876869366,-169.174851853781,-168.195430047558,130.760911735146,False,False,False,False,-144.209417607118,-167.209601523894,-156.811471795628,119.894135407169,-144.209417607118,-167.209601523894,-156.811471795628,119.894135407169,2373,505,1,1,2371,0.3294341,1328,1987,-0.925303,0.3318169,-0.1150035,-26.61076,-5.319754,-20.85191,-167.838211153967,-165.68795832022,-145.409536485802,-157.802313678143,-165.527749403048,-173.518087184723,-6.67283954078223,19.5888886244955
2009-04-12 오후 7:48:56,-0.2861196,-1.369031,-0.2626765,-1.373722,-0.3512976,-1.353773,1.059365,-0.9131585,1.059365,-0.9131585,1.398611,0,0,0,0,0,0,0,0,NaN,NaN,NaN,NaN,NaN,NaN,NaN,NaN,NaN,NaN,0,1,47,0,606.4085,0.7224976,1,4.630065,True,-165.452876869366,-169.174851853781,-168.195430047558,130.760911735146,False,False,False,False,-144.209417607118,-167.209601523894,-156.811471795628,119.894135407169,-144.209417607118,-167.209601523894,-156.811471795628,119.894135407169,2371,506,1,2,2373,0.3318169,1331,1976,-0.9216089,0.3294341,-0.1282273,-26.50789,-5.319754,-20.85191,-167.626338685913,-165.68795832022,-145.409536485802,-156.650361293486,-165.527749403048,-174.2742164466,-7.46412464009102,19.4962507687826
2009-04-12 오후 7:48:56,-0.2861196,-1.369031,-0.2626765,-1.373722,-0.3512976,-1.353773,1.059365,-0.9131585,1.059365,-0.9131585,1.398611,0,0,0,0,0,0,0,0,NaN,NaN,NaN,NaN,NaN,NaN,NaN,NaN,NaN,NaN,0,1,48,0,606.4085,0.7224976,1,2.735759,True,-165.452876869366,-169.174851853781,-168.195430047558,130.760911735146,False,False,False,False,-144.209417607118,-167.209601523894,-156.811471795628,119.894135407169,-144.209417607118,-167.209601523894,-156.811471795628,119.894135407169,2374,507,1,1,2371,0.3294341,1325,1986,-0.9289972,0.3330084,-0.1162057,-26.50789,-5.319754,-20.85191,-167.452851880995,-165.68795832022,-145.409536485802,-157.740227258588,-165.527749403048,-173.559109300878,-6.71569257452171,19.5798693596965
2009-04-12 오후 7:48:56,-0.2861196,-1.369031,-0.2626765,-1.373722,-0.3512976,-1.353773,1.059365,-0.9131585,1.059365,-0.9131585,1.398611,0,0,0,0,0,0,0,0,NaN,NaN,NaN,NaN,NaN,NaN,NaN,NaN,NaN,NaN,0,1,49,0,606.4085,0.7224976,1,3.381937,True,-165.452876869366,-169.174851853781,-168.195430047558,130.760911735146,False,False,False,False,-144.209417607118,-167.209601523894,-156.811471795628,119.894135407169,-144.209417607118,-167.209601523894,-156.811471795628,119.894135407169,2367,508,1,2,2374,0.3330084,1316,1973,-0.9400796,0.3246683,-0.1318338,-26.50789,-5.651052,-20.85191,-167.270294584858,-164.836561579799,-145.409536485802,-155.612650652886,-165.527749403048,-173.539943790067,-7.55078266518556,18.8814995925356
2009-04-12 오후 7:48:56,-0.2861196,-1.369031,-0.2626765,-1.373722,-0.3512976,-1.353773,1.059365,-0.9131585,1.059365,-0.9131585,1.398611,0,0,0,0,0,0,0,0,NaN,NaN,NaN,NaN,NaN,NaN,NaN,NaN,NaN,NaN,0,1,50,0,606.4085,0.7224976,1,4.935522,True,-165.452876869366,-169.174851853781,-168.195430047558,130.760911735146,False,False,False,False,-144.209417607118,-167.209601523894,-156.811471795628,119.894135407169,-144.209417607118,-167.209601523894,-156.811471795628,119.894135407169,2362,508,0,2,2374,0.3330084,1299,1971,-0.9610131,0.3187112,-0.1342382,-26.50789,-5.540619,-20.85191,-167.115522498266,-165.119618279383,-145.409536485802,-155.834850366965,-165.527749403048,-173.751952861904,-7.5524022737925,18.1828668630917
2009-04-12 오후 7:48:56,-0.2861196,-1.369031,-0.2626765,-1.373722,-0.3512976,-1.353773,1.059365,-0.9131585,1.059365,-0.9131585,1.398611,0,0,0,0,0,0,0,0,NaN,NaN,NaN,NaN,NaN,NaN,NaN,NaN,NaN,NaN,0,1,51,0,606.4085,0.7224976,1,4.151431,True,-165.452876869366,-169.174851853781,-168.195430047558,130.760911735146,False,False,False,False,-144.209417607118,-167.209601523894,-156.811471795628,119.894135407169,-144.209417607118,-167.209601523894,-156.811471795628,119.894135407169,2373,509,1,1,2362,0.3187112,1302,1986,-0.957319,0.3318169,-0.1162057,-26.50789,-5.651052,-20.85191,-166.95024558073,-164.836561579799,-145.409536485802,-157.083299664216,-165.527749403048,-172.569155342954,-6.54280298426894,18.987567307704
2009-04-12 오후 7:48:56,-0.2861196,-1.369031,-0.2626765,-1.373722,-0.3512976,-1.353773,1.059365,-0.9131585,1.059365,-0.9131585,1.398611,0,0,0,0,0,0,0,0,NaN,NaN,NaN,NaN,NaN,NaN,NaN,NaN,NaN,NaN,0,1,52,0,606.4085,0.7224976,1,3.864906,True,-165.452876869366,-169.174851853781,-168.195430047558,130.760911735146,False,False,False,False,-144.209417607118,-167.209601523894,-156.811471795628,119.894135407169,-144.209417607118,-167.209601523894,-156.811471795628,119.894135407169,2367,510,1,2,2373,0.3318169,1302,1959,-0.957319,0.3246683,-0.1486642,-26.50789,-5.761484,-20.85191,-166.785556059463,-164.554269861403,-145.409536485802,-154.085078845012,-165.527749403048,-174.033479599113,-8.36621931339952,18.5273645293542
2009-04-12 오후 7:48:56,-0.2861196,-1.369031,-0.2626765,-1.373722,-0.3512976,-1.353773,1.059365,-0.9131585,1.059365,-0.9131585,1.398611,0,0,0,0,0,0,0,0,NaN,NaN,NaN,NaN,NaN,NaN,NaN,NaN,NaN,NaN,0,1,53,0,606.4085,0.7224976,1,3.966658,True,-165.452876869366,-169.174851853781,-168.195430047558,130.760911735146,False,False,False,False,-144.209417607118,-167.209601523894,-156.811471795628,119.894135407169,-144.209417607118,-167.209601523894,-156.811471795628,119.894135407169,2366,510,0,2,2373,0.3318169,1305,1975,-0.9536248,0.3234769,-0.1294295,-26.50789,-5.761484,-20.85191,-166.619186311659,-164.554269861403,-145.409536485802,-155.634616541256,-165.527749403048,-173.041927376924,-7.32410063946388,18.5788317122975
2009-04-12 오후 7:48:56,-0.2861196,-1.369031,-0.2626765,-1.373722,-0.3512976,-1.353773,1.059365,-0.9131585,1.059365,-0.9131585,1.398611,0,0,0,0,0,0,0,0,NaN,NaN,NaN,NaN,NaN,NaN,NaN,NaN,NaN,NaN,0,1,54,0,606.4085,0.7224976,1,3.722818,True,-165.452876869366,-169.174851853781,-168.195430047558,130.760911735146,False,False,False,False,-144.209417607118,-167.209601523894,-156.811471795628,119.894135407169,-144.209417607118,-167.209601523894,-156.811471795628,119.894135407169,2367,511,1,1,2366,0.3234769,1316,1997,-0.9400796,0.3246683,-0.1029819,-26.50789,-5.761484,-20.85191,-166.462146602263,-164.554269861403,-145.409536485802,-157.693358500503,-165.527749403048,-171.680943882908,-5.91160428561373,18.9477985312616
2009-04-12 오후 7:48:56,-0.2861196,-1.369031,-0.2626765,-1.373722,-0.3512976,-1.353773,1.059365,-0.9131585,1.059365,-0.9131585,1.398611,0,0,0,0,0,0,0,0,NaN,NaN,NaN,NaN,NaN,NaN,NaN,NaN,NaN,NaN,0,1,55,0,606.4085,0.7224976,1,5.361903,True,-165.452876869366,-169.174851853781,-168.195430047558,130.760911735146,False,False,False,False,-144.209417607118,-167.209601523894,-156.811471795628,119.894135407169,-144.209417607118,-167.209601523894,-156.811471795628,119.894135407169,2356,512,1,2,2367,0.3246683,1329,1977,-0.9240717,0.3115625,-0.1270252,-26.50789,-5.761484,-20.85191,-166.314423270893,-164.554269861403,-145.409536485802,-155.482576530332,-165.527749403048,-173.128274628412,-7.4214444955149,18.4704366101694
2009-04-12 오후 7:48:56,-0.2861196,-1.369031,-0.2626765,-1.373722,-0.3512976,-1.353773,1.059365,-0.9131585,1.059365,-0.9131585,1.398611,0,0,0,0,0,0,0,0,NaN,NaN,NaN,NaN,NaN,NaN,NaN,NaN,NaN,NaN,0,1,56,0,606.4085,0.7224976,1,5.91608,True,-165.452876869366,-169.174851853781,-168.195430047558,130.760911735146,False,False,False,False,-144.209417607118,-167.209601523894,-156.811471795628,119.894135407169,-144.209417607118,-167.209601523894,-156.811471795628,119.894135407169,2354,512,0,2,2367,0.3246683,1337,1987,-0.9142206,0.3091797,-0.1150035,-26.50789,-5.871916,-20.74136,-166.166508694228,-164.193089458093,-145.409536485802,-156.037829928719,-165.527749403048,-172.192757278173,-6.79554943875021,18.5489154837329
